File: Examples/Sin2Psi.uxd
;content of D:\DATA\Mayet\Lasseur\Test Mo-PF-38-43.raw - (Diffrac Plus V4 file)
_FILEVERSION = 3
_SAMPLE
_+SAMPLE
_USER = Lab Manager
_GONIOMETER_CODE = 20
_STAGE_CODE = 4
; Goniometer : D8 theta/2theta, stage : Open eulerian craddle
_SAMPLE_CHANGER_CODE = 0
_ATTACHMENTS_CODE = 0
_GONIOMETER_RADIUS = 390
_FIXED_DETSLIT = 0
_MONOCHROMATOR = 0
; Incident beam monochromator : None
_BETA_FILTER = N
_ANALYZER_CODE = 0
; Received beam analyzer : None
_DATEMEASURED = 22-Apr-2016 12:35:27
_RUNTIME = 79.4536
_WL_UNIT = A
_WL1 = 1.5406
_WL2 = 1.54439
_WL3 = 1.39222
_WLRATIO = 0.5
_ANODE = Cu
_V4_INF_USER = Lab Manager
_V4_INF_CREATOR = V5Converter
_V4_INF_CREATOR_VERSION = 3.3.50.0

; Data for range 1
_DRIVE = COUPLED
_STEPTIME = 220.8
_STEPSIZE = 0.02
_STEPMODE = C
_START = 38
_THETA = 19
_2THETA = 38
_KHI = 0
_PHI = 0
_X = 1.99998
_Y = 0.00002
_Z = 0.265
_DETECTORSLIT = out
_AUX1 = 0
_AUX2 = 0
_TIMESTARTED = 0
_KV = 40
_MA = 40
_RANGE_WL = 1.5406
_3DPLANE = 0
_V4_PSD2THETA = 9999
_V4_PSDCHANNEL1 = 0
_V4_PSDAPERTURE = 2.057142
_V4_PSDTYPE = 5
_V4_PSDFIXED = 0
_V4_TEMPCONTROL = 0
_V4_TEMPSTAGE = 0
_V4_TEMPSENSOR = 0
_V4_TEMPERATURE = 303.15
_V4_TEMPRATE = 0
_V4_TEMPDELAY = 0
_V4_TEMPRAMPFLAG = 0
_V4_COUNTERS_MASK = 1
_V4_DRIVES_MASK = 0
_V4_ENCODERS_MASK = 0
_2THETACOUNTS = 1
; 2THETA	Cnt2_D1
38	306
38.02	325
38.04	321
38.06	302
38.08	288
38.1	317
38.12	304
38.14	323
38.16	322
38.18	278
38.2	305
38.22	320
38.24	300
38.26	292
38.28	301
38.3	281
38.32	284
38.34	329
38.36	304
38.38	333
38.4	340
38.42	336
38.44	305
38.46	317
38.48	333
38.5	286
38.52	341
38.54	310
38.56	334
38.58	303
38.6	295
38.62	345
38.64	305
38.66	334
38.68	290
38.7	320
38.72	316
38.74	320
38.76	289
38.78	315
38.8	329
38.82	345
38.84	343
38.86	335
38.88	323
38.9	350
38.92	317
38.94	322
38.96	334
38.98	324
39	310
39.02	343
39.04	324
39.06	364
39.08	347
39.1	386
39.12	386
39.14	333
39.16	346
39.18	305
39.2	377
39.22	403
39.24	402
39.26	414
39.28	363
39.3	383
39.32	420
39.34	385
39.36	351
39.38	353
39.4	388
39.42	392
39.44	388
39.46	382
39.48	366
39.5	393
39.52	394
39.54	388
39.56	410
39.58	435
39.6	410
39.62	387
39.64	412
39.66	389
39.68	413
39.7	435
39.72	433
39.74	415
39.76	469
39.78	461
39.8	436
39.82	430
39.84	421
39.86	447
39.88	484
39.9	457
39.92	491
39.94	451
39.96	498
39.98	496
40	525
40.02	538
40.04	476
40.06	518
40.08	553
40.1	553
40.12	618
40.14	638
40.16	660
40.18	660
40.2	773
40.22	871
40.24	915
40.26	922
40.28	1108
40.3	1276
40.32	1537
40.34	1978
40.36	2351
40.38	3173
40.4	4112
40.42	5528
40.44	7305
40.46	8814
40.48	10044
40.5	11420
40.52	12017
40.54	12127
40.56	11557
40.58	10677
40.6	9526
40.62	8258
40.64	7041
40.66	5906
40.68	4823
40.7	3723
40.72	2813
40.74	2227
40.76	1729
40.78	1362
40.8	1113
40.82	1078
40.84	955
40.86	820
40.88	806
40.9	712
40.92	691
40.94	696
40.96	633
40.98	581
41	578
41.02	599
41.04	556
41.06	609
41.08	546
41.1	534
41.12	484
41.14	508
41.16	596
41.18	523
41.2	496
41.22	525
41.24	487
41.26	501
41.28	508
41.3	501
41.32	494
41.34	504
41.36	539
41.38	521
41.4	549
41.42	495
41.44	525
41.46	491
41.48	501
41.5	448
41.52	466
41.54	526
41.56	508
41.58	473
41.6	458
41.62	434
41.64	530
41.66	521
41.68	498
41.7	535
41.72	530
41.74	514
41.76	537
41.78	487
41.8	492
41.82	566
41.84	539
41.86	523
41.88	463
41.9	513
41.92	512
41.94	536
41.96	498
41.98	525
42	518
42.02	482
42.04	482
42.06	509
42.08	531
42.1	526
42.12	499
42.14	520
42.16	548
42.18	551
42.2	512
42.22	562
42.24	509
42.26	540
42.28	559
42.3	517
42.32	507
42.34	544
42.36	524
42.38	522
42.4	577
42.42	518
42.44	493
42.46	526
42.48	542
42.5	599
42.52	522
42.54	524
42.56	560
42.58	545
42.6	566
42.62	549
42.64	518
42.66	545
42.68	526
42.7	601
42.72	538
42.74	531
42.76	542
42.78	502
42.8	505
42.82	527
42.84	581
42.86	574
42.88	538
42.9	549
42.92	543
42.94	552
42.96	553
42.98	540
43	546

; Data for range 2
_DRIVE = COUPLED
_STEPTIME = 220.8
_STEPSIZE = 0.02
_STEPMODE = C
_START = 38
_THETA = 19
_2THETA = 38
_KHI = 10
_PHI = 0
_X = 1.99998
_Y = 0.00002
_Z = 0.265
_DETECTORSLIT = out
_AUX1 = 0
_AUX2 = 0
_TIMESTARTED = 451.0436
_KV = 40
_MA = 40
_RANGE_WL = 1.5406
_3DPLANE = 0
_V4_PSD2THETA = 9999
_V4_PSDCHANNEL1 = 0
_V4_PSDAPERTURE = 2.057142
_V4_PSDTYPE = 5
_V4_PSDFIXED = 0
_V4_TEMPCONTROL = 0
_V4_TEMPSTAGE = 0
_V4_TEMPSENSOR = 0
_V4_TEMPERATURE = 303.15
_V4_TEMPRATE = 0
_V4_TEMPDELAY = 0
_V4_TEMPRAMPFLAG = 0
_V4_COUNTERS_MASK = 1
_V4_DRIVES_MASK = 0
_V4_ENCODERS_MASK = 0
_2THETACOUNTS = 1
; 2THETA	Cnt2_D1
38	314
38.02	313
38.04	284
38.06	309
38.08	294
38.1	310
38.12	326
38.14	300
38.16	309
38.18	291
38.2	309
38.22	308
38.24	313
38.26	321
38.28	286
38.3	323
38.32	325
38.34	297
38.36	315
38.38	312
38.4	294
38.42	299
38.44	307
38.46	299
38.48	327
38.5	298
38.52	269
38.54	333
38.56	313
38.58	322
38.6	329
38.62	326
38.64	288
38.66	320
38.68	298
38.7	317
38.72	312
38.74	313
38.76	288
38.78	301
38.8	326
38.82	302
38.84	302
38.86	308
38.88	297
38.9	346
38.92	327
38.94	307
38.96	317
38.98	365
39	369
39.02	328
39.04	334
39.06	376
39.08	378
39.1	379
39.12	374
39.14	328
39.16	371
39.18	356
39.2	352
39.22	362
39.24	367
39.26	373
39.28	372
39.3	418
39.32	406
39.34	424
39.36	397
39.38	364
39.4	414
39.42	391
39.44	369
39.46	416
39.48	385
39.5	404
39.52	423
39.54	373
39.56	403
39.58	399
39.6	403
39.62	419
39.64	357
39.66	417
39.68	428
39.7	427
39.72	462
39.74	502
39.76	418
39.78	441
39.8	435
39.82	409
39.84	486
39.86	475
39.88	457
39.9	480
39.92	490
39.94	457
39.96	515
39.98	501
40	498
40.02	568
40.04	551
40.06	667
40.08	652
40.1	641
40.12	690
40.14	704
40.16	788
40.18	834
40.2	842
40.22	915
40.24	949
40.26	1076
40.28	1305
40.3	1416
40.32	1641
40.34	2022
40.36	2529
40.38	3199
40.4	4483
40.42	5809
40.44	7499
40.46	8889
40.48	10009
40.5	11145
40.52	11355
40.54	11513
40.56	11139
40.58	10113
40.6	9270
40.62	8085
40.64	7082
40.66	5744
40.68	4805
40.7	3797
40.72	3014
40.74	2366
40.76	1889
40.78	1545
40.8	1336
40.82	1168
40.84	1025
40.86	942
40.88	826
40.9	791
40.92	766
40.94	677
40.96	630
40.98	621
41	644
41.02	557
41.04	608
41.06	586
41.08	570
41.1	572
41.12	528
41.14	521
41.16	522
41.18	517
41.2	489
41.22	524
41.24	547
41.26	517
41.28	517
41.3	484
41.32	528
41.34	533
41.36	523
41.38	491
41.4	491
41.42	493
41.44	473
41.46	481
41.48	516
41.5	523
41.52	513
41.54	464
41.56	466
41.58	500
41.6	511
41.62	524
41.64	501
41.66	508
41.68	480
41.7	510
41.72	535
41.74	518
41.76	501
41.78	482
41.8	518
41.82	517
41.84	534
41.86	463
41.88	518
41.9	485
41.92	459
41.94	473
41.96	513
41.98	500
42	472
42.02	493
42.04	522
42.06	495
42.08	479
42.1	532
42.12	530
42.14	545
42.16	535
42.18	522
42.2	510
42.22	565
42.24	542
42.26	497
42.28	505
42.3	514
42.32	511
42.34	495
42.36	516
42.38	487
42.4	555
42.42	528
42.44	524
42.46	496
42.48	559
42.5	551
42.52	525
42.54	557
42.56	559
42.58	506
42.6	524
42.62	541
42.64	549
42.66	493
42.68	512
42.7	527
42.72	549
42.74	544
42.76	561
42.78	560
42.8	536
42.82	543
42.84	523
42.86	523
42.88	558
42.9	543
42.92	563
42.94	536
42.96	566
42.98	504
43	549

; Data for range 3
_DRIVE = COUPLED
_STEPTIME = 220.8
_STEPSIZE = 0.02
_STEPMODE = C
_START = 38
_THETA = 19
_2THETA = 38
_KHI = 20
_PHI = 0
_X = 1.99998
_Y = 0.00002
_Z = 0.265
_DETECTORSLIT = out
_AUX1 = 0
_AUX2 = 0
_TIMESTARTED = 891.1204
_KV = 40
_MA = 40
_RANGE_WL = 1.5406
_3DPLANE = 0
_V4_PSD2THETA = 9999
_V4_PSDCHANNEL1 = 0
_V4_PSDAPERTURE = 2.057142
_V4_PSDTYPE = 5
_V4_PSDFIXED = 0
_V4_TEMPCONTROL = 0
_V4_TEMPSTAGE = 0
_V4_TEMPSENSOR = 0
_V4_TEMPERATURE = 303.15
_V4_TEMPRATE = 0
_V4_TEMPDELAY = 0
_V4_TEMPRAMPFLAG = 0
_V4_COUNTERS_MASK = 1
_V4_DRIVES_MASK = 0
_V4_ENCODERS_MASK = 0
_2THETACOUNTS = 1
; 2THETA	Cnt2_D1
38	264
38.02	292
38.04	307
38.06	301
38.08	312
38.1	300
38.12	278
38.14	312
38.16	277
38.18	282
38.2	277
38.22	307
38.24	337
38.26	287
38.28	308
38.3	314
38.32	315
38.34	293
38.36	298
38.38	299
38.4	317
38.42	285
38.44	315
38.46	326
38.48	329
38.5	295
38.52	306
38.54	303
38.56	310
38.58	323
38.6	299
38.62	307
38.64	298
38.66	316
38.68	316
38.7	302
38.72	296
38.74	251
38.76	318
38.78	324
38.8	339
38.82	292
38.84	338
38.86	304
38.88	329
38.9	321
38.92	276
38.94	316
38.96	301
38.98	300
39	360
39.02	378
39.04	365
39.06	358
39.08	379
39.1	376
39.12	364
39.14	369
39.16	394
39.18	377
39.2	403
39.22	367
39.24	374
39.26	395
39.28	367
39.3	347
39.32	371
39.34	381
39.36	398
39.38	404
39.4	404
39.42	384
39.44	368
39.46	408
39.48	412
39.5	378
39.52	355
39.54	404
39.56	422
39.58	462
39.6	430
39.62	414
39.64	452
39.66	437
39.68	438
39.7	429
39.72	434
39.74	436
39.76	478
39.78	464
39.8	483
39.82	448
39.84	536
39.86	547
39.88	481
39.9	502
39.92	605
39.94	573
39.96	551
39.98	579
40	587
40.02	587
40.04	642
40.06	581
40.08	591
40.1	721
40.12	698
40.14	721
40.16	764
40.18	798
40.2	839
40.22	958
40.24	1031
40.26	1144
40.28	1284
40.3	1548
40.32	1807
40.34	2224
40.36	2945
40.38	3785
40.4	4868
40.42	6087
40.44	7258
40.46	8386
40.48	9565
40.5	9968
40.52	10585
40.54	10556
40.56	10283
40.58	9514
40.6	8697
40.62	7386
40.64	6568
40.66	5616
40.68	4584
40.7	3739
40.72	3019
40.74	2511
40.76	1949
40.78	1728
40.8	1398
40.82	1264
40.84	1163
40.86	1050
40.88	951
40.9	901
40.92	833
40.94	829
40.96	746
40.98	767
41	670
41.02	632
41.04	663
41.06	608
41.08	633
41.1	622
41.12	605
41.14	584
41.16	584
41.18	526
41.2	509
41.22	453
41.24	502
41.26	506
41.28	547
41.3	513
41.32	470
41.34	497
41.36	523
41.38	489
41.4	503
41.42	493
41.44	518
41.46	459
41.48	456
41.5	501
41.52	538
41.54	540
41.56	474
41.58	508
41.6	497
41.62	533
41.64	523
41.66	441
41.68	501
41.7	516
41.72	501
41.74	493
41.76	493
41.78	508
41.8	525
41.82	493
41.84	465
41.86	506
41.88	478
41.9	526
41.92	500
41.94	516
41.96	512
41.98	505
42	522
42.02	533
42.04	507
42.06	555
42.08	487
42.1	549
42.12	500
42.14	531
42.16	508
42.18	459
42.2	570
42.22	512
42.24	499
42.26	520
42.28	518
42.3	534
42.32	553
42.34	494
42.36	487
42.38	492
42.4	498
42.42	490
42.44	540
42.46	546
42.48	514
42.5	519
42.52	561
42.54	531
42.56	532
42.58	539
42.6	538
42.62	494
42.64	532
42.66	556
42.68	519
42.7	483
42.72	508
42.74	541
42.76	536
42.78	538
42.8	553
42.82	536
42.84	550
42.86	513
42.88	584
42.9	525
42.92	548
42.94	528
42.96	519
42.98	546
43	553

; Data for range 4
_DRIVE = COUPLED
_STEPTIME = 220.8
_STEPSIZE = 0.02
_STEPMODE = C
_START = 38
_THETA = 19
_2THETA = 38
_KHI = 30
_PHI = 0
_X = 1.99998
_Y = 0.00002
_Z = 0.265
_DETECTORSLIT = out
_AUX1 = 0
_AUX2 = 0
_TIMESTARTED = 1331.182
_KV = 40
_MA = 40
_RANGE_WL = 1.5406
_3DPLANE = 0
_V4_PSD2THETA = 9999
_V4_PSDCHANNEL1 = 0
_V4_PSDAPERTURE = 2.057142
_V4_PSDTYPE = 5
_V4_PSDFIXED = 0
_V4_TEMPCONTROL = 0
_V4_TEMPSTAGE = 0
_V4_TEMPSENSOR = 0
_V4_TEMPERATURE = 303.15
_V4_TEMPRATE = 0
_V4_TEMPDELAY = 0
_V4_TEMPRAMPFLAG = 0
_V4_COUNTERS_MASK = 1
_V4_DRIVES_MASK = 0
_V4_ENCODERS_MASK = 0
_2THETACOUNTS = 1
; 2THETA	Cnt2_D1
38	279
38.02	320
38.04	292
38.06	301
38.08	282
38.1	330
38.12	333
38.14	306
38.16	278
38.18	294
38.2	285
38.22	277
38.24	295
38.26	285
38.28	302
38.3	278
38.32	284
38.34	296
38.36	262
38.38	290
38.4	329
38.42	297
38.44	274
38.46	279
38.48	289
38.5	272
38.52	317
38.54	282
38.56	326
38.58	288
38.6	293
38.62	324
38.64	294
38.66	315
38.68	319
38.7	298
38.72	305
38.74	305
38.76	291
38.78	290
38.8	315
38.82	293
38.84	267
38.86	258
38.88	328
38.9	303
38.92	327
38.94	301
38.96	338
38.98	290
39	350
39.02	319
39.04	319
39.06	329
39.08	354
39.1	352
39.12	338
39.14	359
39.16	360
39.18	370
39.2	395
39.22	435
39.24	340
39.26	369
39.28	368
39.3	390
39.32	374
39.34	382
39.36	371
39.38	396
39.4	363
39.42	367
39.44	388
39.46	402
39.48	438
39.5	403
39.52	415
39.54	424
39.56	422
39.58	423
39.6	465
39.62	466
39.64	410
39.66	432
39.68	475
39.7	403
39.72	472
39.74	484
39.76	440
39.78	462
39.8	438
39.82	493
39.84	467
39.86	472
39.88	476
39.9	526
39.92	488
39.94	509
39.96	520
39.98	530
40	570
40.02	523
40.04	572
40.06	612
40.08	626
40.1	596
40.12	617
40.14	708
40.16	755
40.18	802
40.2	838
40.22	940
40.24	1057
40.26	1217
40.28	1430
40.3	1832
40.32	2377
40.34	2929
40.36	3713
40.38	4533
40.4	5375
40.42	6158
40.44	6917
40.46	7724
40.48	8250
40.5	8684
40.52	9119
40.54	8786
40.56	8621
40.58	8197
40.6	7533
40.62	6929
40.64	6086
40.66	5169
40.68	4482
40.7	3701
40.72	3107
40.74	2570
40.76	2062
40.78	1765
40.8	1444
40.82	1243
40.84	1170
40.86	941
40.88	920
40.9	841
40.92	840
40.94	787
40.96	770
40.98	833
41	729
41.02	727
41.04	708
41.06	692
41.08	666
41.1	682
41.12	596
41.14	621
41.16	620
41.18	598
41.2	610
41.22	603
41.24	603
41.26	542
41.28	574
41.3	539
41.32	554
41.34	564
41.36	558
41.38	541
41.4	479
41.42	522
41.44	550
41.46	529
41.48	481
41.5	523
41.52	544
41.54	512
41.56	486
41.58	533
41.6	504
41.62	506
41.64	458
41.66	469
41.68	513
41.7	505
41.72	485
41.74	517
41.76	497
41.78	560
41.8	507
41.82	520
41.84	473
41.86	480
41.88	472
41.9	484
41.92	465
41.94	473
41.96	529
41.98	471
42	490
42.02	493
42.04	498
42.06	483
42.08	512
42.1	546
42.12	512
42.14	494
42.16	494
42.18	489
42.2	463
42.22	486
42.24	482
42.26	514
42.28	497
42.3	518
42.32	526
42.34	531
42.36	503
42.38	509
42.4	559
42.42	509
42.44	518
42.46	538
42.48	531
42.5	516
42.52	518
42.54	502
42.56	481
42.58	540
42.6	546
42.62	479
42.64	565
42.66	523
42.68	520
42.7	558
42.72	589
42.74	547
42.76	522
42.78	507
42.8	520
42.82	546
42.84	526
42.86	536
42.88	554
42.9	532
42.92	499
42.94	532
42.96	565
42.98	574
43	538

; Data for range 5
_DRIVE = COUPLED
_STEPTIME = 220.8
_STEPSIZE = 0.02
_STEPMODE = C
_START = 38
_THETA = 19
_2THETA = 38
_KHI = 40
_PHI = 0
_X = 1.99998
_Y = 0.00002
_Z = 0.265
_DETECTORSLIT = out
_AUX1 = 0
_AUX2 = 0
_TIMESTARTED = 1771.024
_KV = 40
_MA = 40
_RANGE_WL = 1.5406
_3DPLANE = 0
_V4_PSD2THETA = 9999
_V4_PSDCHANNEL1 = 0
_V4_PSDAPERTURE = 2.057142
_V4_PSDTYPE = 5
_V4_PSDFIXED = 0
_V4_TEMPCONTROL = 0
_V4_TEMPSTAGE = 0
_V4_TEMPSENSOR = 0
_V4_TEMPERATURE = 303.15
_V4_TEMPRATE = 0
_V4_TEMPDELAY = 0
_V4_TEMPRAMPFLAG = 0
_V4_COUNTERS_MASK = 1
_V4_DRIVES_MASK = 0
_V4_ENCODERS_MASK = 0
_2THETACOUNTS = 1
; 2THETA	Cnt2_D1
38	311
38.02	291
38.04	294
38.06	307
38.08	312
38.1	294
38.12	277
38.14	265
38.16	307
38.18	272
38.2	308
38.22	294
38.24	288
38.26	279
38.28	282
38.3	287
38.32	291
38.34	317
38.36	326
38.38	289
38.4	311
38.42	309
38.44	306
38.46	291
38.48	260
38.5	270
38.52	293
38.54	281
38.56	290
38.58	297
38.6	318
38.62	274
38.64	286
38.66	262
38.68	292
38.7	296
38.72	320
38.74	266
38.76	296
38.78	284
38.8	326
38.82	319
38.84	315
38.86	293
38.88	323
38.9	354
38.92	304
38.94	322
38.96	315
38.98	326
39	320
39.02	302
39.04	357
39.06	338
39.08	318
39.1	343
39.12	361
39.14	327
39.16	384
39.18	337
39.2	375
39.22	399
39.24	358
39.26	369
39.28	336
39.3	325
39.32	358
39.34	373
39.36	353
39.38	360
39.4	389
39.42	395
39.44	403
39.46	329
39.48	414
39.5	354
39.52	415
39.54	416
39.56	394
39.58	402
39.6	425
39.62	385
39.64	399
39.66	399
39.68	433
39.7	441
39.72	395
39.74	419
39.76	457
39.78	463
39.8	435
39.82	456
39.84	475
39.86	478
39.88	501
39.9	509
39.92	478
39.94	543
39.96	503
39.98	503
40	526
40.02	609
40.04	581
40.06	608
40.08	621
40.1	673
40.12	712
40.14	767
40.16	843
40.18	894
40.2	1002
40.22	1228
40.24	1418
40.26	1719
40.28	2204
40.3	2558
40.32	3033
40.34	3380
40.36	4134
40.38	4528
40.4	4999
40.42	5593
40.44	6043
40.46	6279
40.48	6581
40.5	6922
40.52	7001
40.54	7074
40.56	7033
40.58	6867
40.6	6546
40.62	6158
40.64	5601
40.66	5208
40.68	4699
40.7	4072
40.72	3558
40.74	3034
40.76	2538
40.78	2170
40.8	1869
40.82	1412
40.84	1182
40.86	1091
40.88	954
40.9	839
40.92	820
40.94	782
40.96	731
40.98	708
41	667
41.02	687
41.04	644
41.06	675
41.08	604
41.1	629
41.12	634
41.14	573
41.16	611
41.18	600
41.2	611
41.22	618
41.24	570
41.26	610
41.28	560
41.3	602
41.32	558
41.34	566
41.36	512
41.38	525
41.4	532
41.42	498
41.44	511
41.46	551
41.48	508
41.5	526
41.52	514
41.54	494
41.56	515
41.58	492
41.6	512
41.62	526
41.64	500
41.66	480
41.68	515
41.7	457
41.72	492
41.74	537
41.76	506
41.78	471
41.8	496
41.82	479
41.84	473
41.86	456
41.88	551
41.9	489
41.92	463
41.94	483
41.96	496
41.98	541
42	492
42.02	478
42.04	493
42.06	470
42.08	470
42.1	507
42.12	510
42.14	487
42.16	479
42.18	471
42.2	545
42.22	501
42.24	508
42.26	493
42.28	499
42.3	497
42.32	465
42.34	477
42.36	503
42.38	469
42.4	496
42.42	496
42.44	494
42.46	503
42.48	546
42.5	500
42.52	543
42.54	502
42.56	547
42.58	513
42.6	534
42.62	503
42.64	528
42.66	528
42.68	545
42.7	543
42.72	536
42.74	550
42.76	543
42.78	485
42.8	564
42.82	564
42.84	546
42.86	591
42.88	511
42.9	516
42.92	549
42.94	569
42.96	505
42.98	582
43	532

; Data for range 6
_DRIVE = COUPLED
_STEPTIME = 220.8
_STEPSIZE = 0.02
_STEPMODE = C
_START = 38
_THETA = 19
_2THETA = 38
_KHI = 50
_PHI = 0
_X = 1.99998
_Y = 0.00002
_Z = 0.265
_DETECTORSLIT = out
_AUX1 = 0
_AUX2 = 0
_TIMESTARTED = 2210.773
_KV = 40
_MA = 40
_RANGE_WL = 1.5406
_3DPLANE = 0
_V4_PSD2THETA = 9999
_V4_PSDCHANNEL1 = 0
_V4_PSDAPERTURE = 2.057142
_V4_PSDTYPE = 5
_V4_PSDFIXED = 0
_V4_TEMPCONTROL = 0
_V4_TEMPSTAGE = 0
_V4_TEMPSENSOR = 0
_V4_TEMPERATURE = 303.15
_V4_TEMPRATE = 0
_V4_TEMPDELAY = 0
_V4_TEMPRAMPFLAG = 0
_V4_COUNTERS_MASK = 1
_V4_DRIVES_MASK = 0
_V4_ENCODERS_MASK = 0
_2THETACOUNTS = 1
; 2THETA	Cnt2_D1
38	272
38.02	263
38.04	242
38.06	292
38.08	289
38.1	264
38.12	253
38.14	226
38.16	263
38.18	295
38.2	267
38.22	284
38.24	238
38.26	247
38.28	274
38.3	277
38.32	276
38.34	272
38.36	270
38.38	264
38.4	269
38.42	280
38.44	280
38.46	281
38.48	312
38.5	278
38.52	280
38.54	278
38.56	280
38.58	286
38.6	260
38.62	286
38.64	278
38.66	287
38.68	322
38.7	334
38.72	283
38.74	297
38.76	297
38.78	290
38.8	301
38.82	316
38.84	305
38.86	285
38.88	273
38.9	301
38.92	292
38.94	282
38.96	329
38.98	291
39	310
39.02	326
39.04	286
39.06	325
39.08	342
39.1	322
39.12	341
39.14	335
39.16	320
39.18	348
39.2	338
39.22	327
39.24	320
39.26	354
39.28	347
39.3	380
39.32	373
39.34	424
39.36	349
39.38	330
39.4	349
39.42	348
39.44	382
39.46	357
39.48	358
39.5	394
39.52	366
39.54	383
39.56	364
39.58	408
39.6	424
39.62	395
39.64	383
39.66	404
39.68	392
39.7	385
39.72	413
39.74	448
39.76	417
39.78	393
39.8	476
39.82	405
39.84	441
39.86	411
39.88	449
39.9	444
39.92	478
39.94	471
39.96	509
39.98	503
40	522
40.02	546
40.04	595
40.06	619
40.08	642
40.1	710
40.12	890
40.14	948
40.16	1100
40.18	1300
40.2	1585
40.22	1819
40.24	2144
40.26	2353
40.28	2677
40.3	3066
40.32	3417
40.34	3896
40.36	4009
40.38	4274
40.4	4615
40.42	4694
40.44	5027
40.46	5077
40.48	5046
40.5	5148
40.52	5202
40.54	5104
40.56	5086
40.58	5132
40.6	4884
40.62	4925
40.64	4616
40.66	4461
40.68	4107
40.7	3893
40.72	3454
40.74	3155
40.76	2734
40.78	2375
40.8	2115
40.82	1912
40.84	1593
40.86	1287
40.88	1169
40.9	1014
40.92	878
40.94	823
40.96	738
40.98	765
41	662
41.02	602
41.04	603
41.06	617
41.08	596
41.1	574
41.12	577
41.14	546
41.16	544
41.18	551
41.2	579
41.22	555
41.24	555
41.26	551
41.28	574
41.3	507
41.32	552
41.34	532
41.36	515
41.38	542
41.4	521
41.42	514
41.44	490
41.46	508
41.48	531
41.5	532
41.52	499
41.54	479
41.56	556
41.58	483
41.6	482
41.62	472
41.64	478
41.66	486
41.68	529
41.7	471
41.72	510
41.74	493
41.76	469
41.78	476
41.8	447
41.82	472
41.84	466
41.86	464
41.88	469
41.9	515
41.92	525
41.94	490
41.96	446
41.98	472
42	496
42.02	490
42.04	454
42.06	479
42.08	475
42.1	464
42.12	487
42.14	443
42.16	496
42.18	494
42.2	466
42.22	507
42.24	520
42.26	472
42.28	491
42.3	445
42.32	480
42.34	462
42.36	509
42.38	495
42.4	529
42.42	536
42.44	481
42.46	497
42.48	495
42.5	498
42.52	549
42.54	500
42.56	493
42.58	509
42.6	509
42.62	525
42.64	494
42.66	506
42.68	573
42.7	552
42.72	530
42.74	493
42.76	494
42.78	513
42.8	542
42.82	550
42.84	536
42.86	533
42.88	493
42.9	544
42.92	519
42.94	500
42.96	533
42.98	552
43	521

; Data for range 7
_DRIVE = COUPLED
_STEPTIME = 220.8
_STEPSIZE = 0.02
_STEPMODE = C
_START = 38
_THETA = 19
_2THETA = 38
_KHI = 60
_PHI = 0
_X = 1.99998
_Y = 0.00002
_Z = 0.265
_DETECTORSLIT = out
_AUX1 = 0
_AUX2 = 0
_TIMESTARTED = 2650.273
_KV = 40
_MA = 40
_RANGE_WL = 1.5406
_3DPLANE = 0
_V4_PSD2THETA = 9999
_V4_PSDCHANNEL1 = 0
_V4_PSDAPERTURE = 2.057142
_V4_PSDTYPE = 5
_V4_PSDFIXED = 0
_V4_TEMPCONTROL = 0
_V4_TEMPSTAGE = 0
_V4_TEMPSENSOR = 0
_V4_TEMPERATURE = 303.15
_V4_TEMPRATE = 0
_V4_TEMPDELAY = 0
_V4_TEMPRAMPFLAG = 0
_V4_COUNTERS_MASK = 1
_V4_DRIVES_MASK = 0
_V4_ENCODERS_MASK = 0
_2THETACOUNTS = 1
; 2THETA	Cnt2_D1
38	303
38.02	258
38.04	267
38.06	259
38.08	273
38.1	281
38.12	234
38.14	265
38.16	276
38.18	272
38.2	258
38.22	252
38.24	270
38.26	263
38.28	284
38.3	287
38.32	275
38.34	282
38.36	257
38.38	279
38.4	267
38.42	264
38.44	248
38.46	248
38.48	279
38.5	266
38.52	260
38.54	257
38.56	248
38.58	255
38.6	269
38.62	277
38.64	302
38.66	285
38.68	249
38.7	242
38.72	297
38.74	243
38.76	269
38.78	265
38.8	293
38.82	288
38.84	314
38.86	278
38.88	299
38.9	288
38.92	263
38.94	265
38.96	300
38.98	301
39	285
39.02	288
39.04	320
39.06	303
39.08	353
39.1	306
39.12	330
39.14	323
39.16	335
39.18	327
39.2	340
39.22	334
39.24	344
39.26	297
39.28	297
39.3	314
39.32	312
39.34	343
39.36	359
39.38	363
39.4	362
39.42	362
39.44	353
39.46	319
39.48	324
39.5	355
39.52	351
39.54	382
39.56	354
39.58	356
39.6	364
39.62	345
39.64	365
39.66	393
39.68	398
39.7	395
39.72	390
39.74	442
39.76	370
39.78	394
39.8	427
39.82	451
39.84	439
39.86	456
39.88	470
39.9	504
39.92	500
39.94	559
39.96	571
39.98	678
40	667
40.02	810
40.04	890
40.06	977
40.08	1118
40.1	1315
40.12	1403
40.14	1566
40.16	1793
40.18	1982
40.2	2108
40.22	2269
40.24	2355
40.26	2489
40.28	2685
40.3	2762
40.32	2795
40.34	2926
40.36	3005
40.38	3027
40.4	3134
40.42	3117
40.44	3169
40.46	3177
40.48	3195
40.5	3254
40.52	3419
40.54	3317
40.56	3408
40.58	3434
40.6	3370
40.62	3356
40.64	3312
40.66	3414
40.68	3392
40.7	3153
40.72	3038
40.74	3105
40.76	2849
40.78	2680
40.8	2482
40.82	2272
40.84	2085
40.86	1845
40.88	1623
40.9	1538
40.92	1316
40.94	1182
40.96	1038
40.98	912
41	818
41.02	754
41.04	673
41.06	658
41.08	616
41.1	552
41.12	552
41.14	591
41.16	522
41.18	520
41.2	488
41.22	500
41.24	500
41.26	493
41.28	477
41.3	469
41.32	485
41.34	551
41.36	501
41.38	479
41.4	445
41.42	482
41.44	470
41.46	456
41.48	463
41.5	466
41.52	461
41.54	449
41.56	499
41.58	481
41.6	526
41.62	509
41.64	478
41.66	490
41.68	476
41.7	487
41.72	480
41.74	489
41.76	486
41.78	453
41.8	489
41.82	448
41.84	453
41.86	467
41.88	456
41.9	507
41.92	467
41.94	447
41.96	470
41.98	394
42	478
42.02	454
42.04	456
42.06	519
42.08	512
42.1	493
42.12	451
42.14	421
42.16	448
42.18	465
42.2	498
42.22	434
42.24	436
42.26	486
42.28	453
42.3	477
42.32	467
42.34	425
42.36	456
42.38	471
42.4	490
42.42	452
42.44	490
42.46	435
42.48	468
42.5	501
42.52	471
42.54	469
42.56	461
42.58	507
42.6	498
42.62	444
42.64	487
42.66	498
42.68	485
42.7	458
42.72	521
42.74	496
42.76	485
42.78	525
42.8	508
42.82	503
42.84	498
42.86	463
42.88	513
42.9	523
42.92	484
42.94	496
42.96	504
42.98	558
43	466

; Data for range 8
_DRIVE = COUPLED
_STEPTIME = 220.8
_STEPSIZE = 0.02
_STEPMODE = C
_START = 38
_THETA = 19
_2THETA = 38
_KHI = 70
_PHI = 0
_X = 1.99998
_Y = 0.00002
_Z = 0.265
_DETECTORSLIT = out
_AUX1 = 0
_AUX2 = 0
_TIMESTARTED = 3090.022
_KV = 40
_MA = 40
_RANGE_WL = 1.5406
_3DPLANE = 0
_V4_PSD2THETA = 9999
_V4_PSDCHANNEL1 = 0
_V4_PSDAPERTURE = 2.057142
_V4_PSDTYPE = 5
_V4_PSDFIXED = 0
_V4_TEMPCONTROL = 0
_V4_TEMPSTAGE = 0
_V4_TEMPSENSOR = 0
_V4_TEMPERATURE = 303.15
_V4_TEMPRATE = 0
_V4_TEMPDELAY = 0
_V4_TEMPRAMPFLAG = 0
_V4_COUNTERS_MASK = 1
_V4_DRIVES_MASK = 0
_V4_ENCODERS_MASK = 0
_2THETACOUNTS = 1
; 2THETA	Cnt2_D1
38	238
38.02	213
38.04	210
38.06	226
38.08	253
38.1	223
38.12	251
38.14	283
38.16	240
38.18	214
38.2	223
38.22	239
38.24	240
38.26	247
38.28	229
38.3	261
38.32	245
38.34	218
38.36	214
38.38	233
38.4	248
38.42	233
38.44	266
38.46	269
38.48	241
38.5	239
38.52	264
38.54	233
38.56	275
38.58	254
38.6	217
38.62	233
38.64	247
38.66	242
38.68	256
38.7	278
38.72	242
38.74	260
38.76	246
38.78	280
38.8	270
38.82	273
38.84	254
38.86	251
38.88	282
38.9	257
38.92	253
38.94	291
38.96	263
38.98	274
39	235
39.02	273
39.04	269
39.06	267
39.08	260
39.1	274
39.12	290
39.14	315
39.16	277
39.18	296
39.2	293
39.22	256
39.24	265
39.26	304
39.28	295
39.3	283
39.32	315
39.34	321
39.36	313
39.38	314
39.4	304
39.42	311
39.44	296
39.46	320
39.48	323
39.5	336
39.52	316
39.54	319
39.56	341
39.58	350
39.6	329
39.62	333
39.64	371
39.66	393
39.68	376
39.7	443
39.72	450
39.74	500
39.76	556
39.78	589
39.8	621
39.82	685
39.84	731
39.86	831
39.88	936
39.9	969
39.92	996
39.94	1105
39.96	1140
39.98	1136
40	1298
40.02	1259
40.04	1382
40.06	1498
40.08	1529
40.1	1746
40.12	1746
40.14	1720
40.16	1879
40.18	1809
40.2	1973
40.22	1904
40.24	1949
40.26	1925
40.28	1916
40.3	1900
40.32	1807
40.34	1874
40.36	1967
40.38	1929
40.4	1846
40.42	1925
40.44	1935
40.46	1941
40.48	1990
40.5	2066
40.52	1997
40.54	2078
40.56	2046
40.58	2108
40.6	2188
40.62	2216
40.64	2233
40.66	2176
40.68	2159
40.7	2183
40.72	2130
40.74	2106
40.76	2045
40.78	2043
40.8	2057
40.82	2031
40.84	1938
40.86	1903
40.88	1935
40.9	1788
40.92	1657
40.94	1658
40.96	1534
40.98	1524
41	1418
41.02	1293
41.04	1272
41.06	1065
41.08	1048
41.1	883
41.12	830
41.14	817
41.16	713
41.18	630
41.2	552
41.22	569
41.24	554
41.26	538
41.28	460
41.3	479
41.32	470
41.34	467
41.36	454
41.38	429
41.4	449
41.42	446
41.44	427
41.46	443
41.48	442
41.5	450
41.52	451
41.54	425
41.56	431
41.58	426
41.6	435
41.62	446
41.64	436
41.66	440
41.68	455
41.7	446
41.72	412
41.74	426
41.76	463
41.78	442
41.8	424
41.82	467
41.84	394
41.86	424
41.88	459
41.9	436
41.92	437
41.94	438
41.96	437
41.98	419
42	456
42.02	444
42.04	434
42.06	431
42.08	433
42.1	441
42.12	426
42.14	440
42.16	458
42.18	445
42.2	397
42.22	422
42.24	473
42.26	443
42.28	436
42.3	426
42.32	420
42.34	432
42.36	450
42.38	496
42.4	437
42.42	490
42.44	477
42.46	441
42.48	412
42.5	441
42.52	447
42.54	476
42.56	465
42.58	455
42.6	427
42.62	486
42.64	443
42.66	467
42.68	479
42.7	455
42.72	453
42.74	487
42.76	492
42.78	449
42.8	502
42.82	492
42.84	483
42.86	463
42.88	509
42.9	474
42.92	477
42.94	462
42.96	459
42.98	486
43	512

; Data for range 9
_DRIVE = COUPLED
_STEPTIME = 220.8
_STEPSIZE = 0.02
_STEPMODE = C
_START = 38
_THETA = 19
_2THETA = 38
_KHI = 80
_PHI = 0
_X = 1.99998
_Y = 0.00002
_Z = 0.265
_DETECTORSLIT = out
_AUX1 = 0
_AUX2 = 0
_TIMESTARTED = 3529.927
_KV = 40
_MA = 40
_RANGE_WL = 1.5406
_3DPLANE = 0
_V4_PSD2THETA = 9999
_V4_PSDCHANNEL1 = 0
_V4_PSDAPERTURE = 2.057142
_V4_PSDTYPE = 5
_V4_PSDFIXED = 0
_V4_TEMPCONTROL = 0
_V4_TEMPSTAGE = 0
_V4_TEMPSENSOR = 0
_V4_TEMPERATURE = 303.15
_V4_TEMPRATE = 0
_V4_TEMPDELAY = 0
_V4_TEMPRAMPFLAG = 0
_V4_COUNTERS_MASK = 1
_V4_DRIVES_MASK = 0
_V4_ENCODERS_MASK = 0
_2THETACOUNTS = 1
; 2THETA	Cnt2_D1
38	193
38.02	181
38.04	183
38.06	167
38.08	200
38.1	175
38.12	159
38.14	186
38.16	201
38.18	162
38.2	147
38.22	174
38.24	174
38.26	165
38.28	211
38.3	175
38.32	189
38.34	161
38.36	171
38.38	174
38.4	185
38.42	167
38.44	180
38.46	175
38.48	214
38.5	166
38.52	165
38.54	176
38.56	185
38.58	195
38.6	179
38.62	164
38.64	182
38.66	191
38.68	183
38.7	184
38.72	189
38.74	180
38.76	182
38.78	209
38.8	210
38.82	189
38.84	211
38.86	178
38.88	167
38.9	187
38.92	207
38.94	219
38.96	175
38.98	200
39	218
39.02	207
39.04	182
39.06	195
39.08	202
39.1	213
39.12	213
39.14	222
39.16	230
39.18	212
39.2	212
39.22	224
39.24	212
39.26	238
39.28	217
39.3	227
39.32	244
39.34	260
39.36	256
39.38	296
39.4	310
39.42	288
39.44	313
39.46	303
39.48	323
39.5	335
39.52	349
39.54	400
39.56	404
39.58	427
39.6	467
39.62	467
39.64	481
39.66	531
39.68	502
39.7	521
39.72	518
39.74	567
39.76	562
39.78	553
39.8	583
39.82	607
39.84	628
39.86	677
39.88	711
39.9	596
39.92	676
39.94	689
39.96	650
39.98	726
40	767
40.02	724
40.04	782
40.06	737
40.08	776
40.1	834
40.12	808
40.14	833
40.16	847
40.18	867
40.2	859
40.22	812
40.24	868
40.26	882
40.28	840
40.3	910
40.32	919
40.34	935
40.36	928
40.38	913
40.4	848
40.42	915
40.44	867
40.46	934
40.48	936
40.5	954
40.52	944
40.54	985
40.56	972
40.58	1026
40.6	977
40.62	935
40.64	1023
40.66	951
40.68	1020
40.7	970
40.72	1008
40.74	962
40.76	979
40.78	934
40.8	965
40.82	1026
40.84	966
40.86	1003
40.88	963
40.9	1018
40.92	994
40.94	1020
40.96	971
40.98	982
41	929
41.02	944
41.04	935
41.06	922
41.08	873
41.1	927
41.12	877
41.14	900
41.16	871
41.18	879
41.2	792
41.22	769
41.24	764
41.26	801
41.28	727
41.3	742
41.32	782
41.34	741
41.36	748
41.38	732
41.4	708
41.42	650
41.44	639
41.46	641
41.48	675
41.5	643
41.52	581
41.54	614
41.56	545
41.58	618
41.6	561
41.62	524
41.64	501
41.66	448
41.68	443
41.7	446
41.72	458
41.74	410
41.76	414
41.78	436
41.8	398
41.82	410
41.84	403
41.86	385
41.88	382
41.9	383
41.92	371
41.94	356
41.96	374
41.98	376
42	397
42.02	370
42.04	402
42.06	373
42.08	434
42.1	357
42.12	374
42.14	367
42.16	380
42.18	353
42.2	378
42.22	365
42.24	395
42.26	361
42.28	378
42.3	369
42.32	393
42.34	378
42.36	382
42.38	370
42.4	367
42.42	394
42.44	367
42.46	434
42.48	374
42.5	400
42.52	416
42.54	397
42.56	401
42.58	369
42.6	392
42.62	412
42.64	379
42.66	411
42.68	407
42.7	414
42.72	397
42.74	436
42.76	397
42.78	404
42.8	405
42.82	428
42.84	412
42.86	425
42.88	445
42.9	471
42.92	429
42.94	425
42.96	438
42.98	395
43	438

; Data for range 10
_DRIVE = COUPLED
_STEPTIME = 220.8
_STEPSIZE = 0.02
_STEPMODE = C
_START = 38
_THETA = 19
_2THETA = 38
_KHI = 0
_PHI = 90
_X = 1.99998
_Y = 0.00002
_Z = 0.265
_DETECTORSLIT = out
_AUX1 = 0
_AUX2 = 0
_TIMESTARTED = 3969.1
_KV = 40
_MA = 40
_RANGE_WL = 1.5406
_3DPLANE = 0
_V4_PSD2THETA = 9999
_V4_PSDCHANNEL1 = 0
_V4_PSDAPERTURE = 2.057142
_V4_PSDTYPE = 5
_V4_PSDFIXED = 0
_V4_TEMPCONTROL = 0
_V4_TEMPSTAGE = 0
_V4_TEMPSENSOR = 0
_V4_TEMPERATURE = 303.15
_V4_TEMPRATE = 0
_V4_TEMPDELAY = 0
_V4_TEMPRAMPFLAG = 0
_V4_COUNTERS_MASK = 1
_V4_DRIVES_MASK = 0
_V4_ENCODERS_MASK = 0
_2THETACOUNTS = 1
; 2THETA	Cnt2_D1
38	284
38.02	325
38.04	354
38.06	300
38.08	343
38.1	305
38.12	280
38.14	292
38.16	304
38.18	280
38.2	301
38.22	282
38.24	316
38.26	305
38.28	277
38.3	284
38.32	303
38.34	300
38.36	327
38.38	320
38.4	304
38.42	301
38.44	298
38.46	285
38.48	325
38.5	282
38.52	324
38.54	293
38.56	329
38.58	292
38.6	300
38.62	300
38.64	308
38.66	289
38.68	315
38.7	328
38.72	318
38.74	328
38.76	287
38.78	296
38.8	319
38.82	330
38.84	335
38.86	273
38.88	273
38.9	353
38.92	323
38.94	299
38.96	321
38.98	318
39	333
39.02	343
39.04	349
39.06	316
39.08	362
39.1	370
39.12	363
39.14	361
39.16	385
39.18	371
39.2	420
39.22	377
39.24	364
39.26	373
39.28	370
39.3	350
39.32	377
39.34	406
39.36	403
39.38	406
39.4	390
39.42	399
39.44	415
39.46	398
39.48	410
39.5	400
39.52	382
39.54	391
39.56	405
39.58	402
39.6	414
39.62	398
39.64	397
39.66	413
39.68	429
39.7	465
39.72	414
39.74	468
39.76	488
39.78	380
39.8	461
39.82	438
39.84	433
39.86	441
39.88	441
39.9	445
39.92	513
39.94	487
39.96	475
39.98	458
40	497
40.02	544
40.04	509
40.06	569
40.08	514
40.1	561
40.12	618
40.14	593
40.16	625
40.18	672
40.2	735
40.22	810
40.24	884
40.26	997
40.28	1085
40.3	1351
40.32	1606
40.34	1869
40.36	2358
40.38	3164
40.4	4302
40.42	5470
40.44	7275
40.46	8835
40.48	10134
40.5	11135
40.52	12028
40.54	12151
40.56	11451
40.58	10597
40.6	9409
40.62	8108
40.64	6964
40.66	5958
40.68	4681
40.7	3607
40.72	2868
40.74	2185
40.76	1741
40.78	1382
40.8	1132
40.82	1009
40.84	920
40.86	805
40.88	786
40.9	699
40.92	694
40.94	649
40.96	635
40.98	603
41	567
41.02	539
41.04	559
41.06	536
41.08	554
41.1	578
41.12	515
41.14	513
41.16	546
41.18	523
41.2	497
41.22	508
41.24	527
41.26	528
41.28	516
41.3	522
41.32	457
41.34	491
41.36	519
41.38	454
41.4	475
41.42	543
41.44	491
41.46	500
41.48	527
41.5	523
41.52	493
41.54	526
41.56	520
41.58	488
41.6	476
41.62	502
41.64	502
41.66	526
41.68	480
41.7	498
41.72	524
41.74	468
41.76	506
41.78	490
41.8	498
41.82	515
41.84	553
41.86	510
41.88	491
41.9	503
41.92	516
41.94	527
41.96	506
41.98	522
42	480
42.02	496
42.04	501
42.06	506
42.08	503
42.1	489
42.12	462
42.14	546
42.16	475
42.18	475
42.2	526
42.22	500
42.24	510
42.26	501
42.28	502
42.3	505
42.32	504
42.34	519
42.36	528
42.38	516
42.4	511
42.42	508
42.44	538
42.46	503
42.48	501
42.5	531
42.52	543
42.54	500
42.56	494
42.58	564
42.6	545
42.62	514
42.64	522
42.66	525
42.68	571
42.7	575
42.72	601
42.74	543
42.76	518
42.78	504
42.8	573
42.82	564
42.84	540
42.86	585
42.88	569
42.9	561
42.92	577
42.94	580
42.96	567
42.98	592
43	534

; Data for range 11
_DRIVE = COUPLED
_STEPTIME = 220.8
_STEPSIZE = 0.02
_STEPMODE = C
_START = 38
_THETA = 19
_2THETA = 38
_KHI = 10
_PHI = 90
_X = 1.99998
_Y = 0.00002
_Z = 0.265
_DETECTORSLIT = out
_AUX1 = 0
_AUX2 = 0
_TIMESTARTED = 4431.61
_KV = 40
_MA = 40
_RANGE_WL = 1.5406
_3DPLANE = 0
_V4_PSD2THETA = 9999
_V4_PSDCHANNEL1 = 0
_V4_PSDAPERTURE = 2.057142
_V4_PSDTYPE = 5
_V4_PSDFIXED = 0
_V4_TEMPCONTROL = 0
_V4_TEMPSTAGE = 0
_V4_TEMPSENSOR = 0
_V4_TEMPERATURE = 303.15
_V4_TEMPRATE = 0
_V4_TEMPDELAY = 0
_V4_TEMPRAMPFLAG = 0
_V4_COUNTERS_MASK = 1
_V4_DRIVES_MASK = 0
_V4_ENCODERS_MASK = 0
_2THETACOUNTS = 1
; 2THETA	Cnt2_D1
38	326
38.02	339
38.04	281
38.06	338
38.08	340
38.1	304
38.12	302
38.14	290
38.16	304
38.18	300
38.2	295
38.22	281
38.24	294
38.26	294
38.28	299
38.3	301
38.32	286
38.34	290
38.36	294
38.38	296
38.4	282
38.42	283
38.44	332
38.46	304
38.48	270
38.5	301
38.52	295
38.54	326
38.56	297
38.58	302
38.6	314
38.62	275
38.64	299
38.66	299
38.68	319
38.7	307
38.72	321
38.74	325
38.76	318
38.78	303
38.8	290
38.82	316
38.84	281
38.86	309
38.88	317
38.9	320
38.92	315
38.94	370
38.96	332
38.98	310
39	307
39.02	325
39.04	332
39.06	358
39.08	385
39.1	334
39.12	362
39.14	388
39.16	353
39.18	385
39.2	379
39.22	372
39.24	397
39.26	391
39.28	344
39.3	392
39.32	372
39.34	387
39.36	383
39.38	392
39.4	376
39.42	392
39.44	394
39.46	384
39.48	405
39.5	436
39.52	422
39.54	439
39.56	430
39.58	408
39.6	394
39.62	424
39.64	414
39.66	392
39.68	422
39.7	445
39.72	425
39.74	440
39.76	431
39.78	457
39.8	435
39.82	453
39.84	452
39.86	482
39.88	463
39.9	476
39.92	562
39.94	495
39.96	514
39.98	528
40	550
40.02	531
40.04	567
40.06	600
40.08	605
40.1	600
40.12	703
40.14	741
40.16	749
40.18	851
40.2	893
40.22	967
40.24	978
40.26	1128
40.28	1228
40.3	1432
40.32	1685
40.34	2072
40.36	2614
40.38	3287
40.4	4420
40.42	5710
40.44	7411
40.46	8819
40.48	10071
40.5	11262
40.52	11917
40.54	12196
40.56	11442
40.58	10426
40.6	9536
40.62	8286
40.64	7076
40.66	5978
40.68	4924
40.7	3872
40.72	3030
40.74	2402
40.76	1889
40.78	1604
40.8	1326
40.82	1194
40.84	1038
40.86	897
40.88	840
40.9	763
40.92	734
40.94	691
40.96	667
40.98	618
41	600
41.02	592
41.04	636
41.06	584
41.08	546
41.1	538
41.12	588
41.14	537
41.16	541
41.18	558
41.2	487
41.22	489
41.24	484
41.26	496
41.28	517
41.3	464
41.32	485
41.34	542
41.36	546
41.38	461
41.4	520
41.42	523
41.44	520
41.46	465
41.48	488
41.5	497
41.52	538
41.54	504
41.56	488
41.58	536
41.6	504
41.62	515
41.64	524
41.66	529
41.68	491
41.7	482
41.72	459
41.74	511
41.76	548
41.78	495
41.8	490
41.82	444
41.84	507
41.86	501
41.88	482
41.9	491
41.92	478
41.94	515
41.96	513
41.98	474
42	523
42.02	509
42.04	524
42.06	563
42.08	519
42.1	478
42.12	490
42.14	509
42.16	536
42.18	490
42.2	500
42.22	497
42.24	561
42.26	557
42.28	580
42.3	482
42.32	513
42.34	508
42.36	520
42.38	494
42.4	528
42.42	491
42.44	505
42.46	546
42.48	541
42.5	541
42.52	580
42.54	491
42.56	538
42.58	508
42.6	510
42.62	529
42.64	529
42.66	514
42.68	517
42.7	498
42.72	535
42.74	559
42.76	525
42.78	560
42.8	559
42.82	569
42.84	543
42.86	550
42.88	550
42.9	558
42.92	543
42.94	568
42.96	556
42.98	550
43	557

; Data for range 12
_DRIVE = COUPLED
_STEPTIME = 220.8
_STEPSIZE = 0.02
_STEPMODE = C
_START = 38
_THETA = 19
_2THETA = 38
_KHI = 20
_PHI = 90
_X = 1.99998
_Y = 0.00002
_Z = 0.265
_DETECTORSLIT = out
_AUX1 = 0
_AUX2 = 0
_TIMESTARTED = 4870.657
_KV = 40
_MA = 40
_RANGE_WL = 1.5406
_3DPLANE = 0
_V4_PSD2THETA = 9999
_V4_PSDCHANNEL1 = 0
_V4_PSDAPERTURE = 2.057142
_V4_PSDTYPE = 5
_V4_PSDFIXED = 0
_V4_TEMPCONTROL = 0
_V4_TEMPSTAGE = 0
_V4_TEMPSENSOR = 0
_V4_TEMPERATURE = 303.15
_V4_TEMPRATE = 0
_V4_TEMPDELAY = 0
_V4_TEMPRAMPFLAG = 0
_V4_COUNTERS_MASK = 1
_V4_DRIVES_MASK = 0
_V4_ENCODERS_MASK = 0
_2THETACOUNTS = 1
; 2THETA	Cnt2_D1
38	302
38.02	344
38.04	338
38.06	284
38.08	301
38.1	298
38.12	302
38.14	311
38.16	295
38.18	308
38.2	316
38.22	306
38.24	280
38.26	289
38.28	285
38.3	291
38.32	299
38.34	317
38.36	302
38.38	313
38.4	292
38.42	306
38.44	279
38.46	310
38.48	326
38.5	309
38.52	267
38.54	294
38.56	297
38.58	313
38.6	299
38.62	298
38.64	305
38.66	260
38.68	307
38.7	339
38.72	324
38.74	303
38.76	311
38.78	339
38.8	346
38.82	343
38.84	319
38.86	335
38.88	301
38.9	324
38.92	344
38.94	342
38.96	341
38.98	328
39	317
39.02	340
39.04	338
39.06	333
39.08	309
39.1	329
39.12	339
39.14	375
39.16	309
39.18	360
39.2	350
39.22	388
39.24	396
39.26	389
39.28	405
39.3	381
39.32	380
39.34	365
39.36	412
39.38	362
39.4	391
39.42	390
39.44	410
39.46	399
39.48	406
39.5	370
39.52	382
39.54	392
39.56	425
39.58	413
39.6	427
39.62	426
39.64	378
39.66	446
39.68	454
39.7	467
39.72	459
39.74	440
39.76	538
39.78	489
39.8	484
39.82	515
39.84	550
39.86	485
39.88	569
39.9	565
39.92	521
39.94	525
39.96	522
39.98	577
40	556
40.02	588
40.04	650
40.06	663
40.08	640
40.1	671
40.12	701
40.14	746
40.16	729
40.18	795
40.2	831
40.22	933
40.24	1070
40.26	1134
40.28	1331
40.3	1496
40.32	1880
40.34	2276
40.36	3000
40.38	3954
40.4	4835
40.42	6124
40.44	7266
40.46	8760
40.48	9551
40.5	10430
40.52	10867
40.54	10734
40.56	10139
40.58	9511
40.6	8700
40.62	7798
40.64	6697
40.66	5616
40.68	4699
40.7	3971
40.72	3176
40.74	2491
40.76	1911
40.78	1782
40.8	1425
40.82	1290
40.84	1149
40.86	1036
40.88	1033
40.9	884
40.92	858
40.94	820
40.96	802
40.98	699
41	701
41.02	729
41.04	711
41.06	633
41.08	598
41.1	646
41.12	573
41.14	567
41.16	587
41.18	605
41.2	566
41.22	556
41.24	544
41.26	550
41.28	511
41.3	506
41.32	515
41.34	474
41.36	542
41.38	495
41.4	480
41.42	468
41.44	515
41.46	535
41.48	480
41.5	514
41.52	514
41.54	512
41.56	492
41.58	465
41.6	464
41.62	520
41.64	506
41.66	511
41.68	505
41.7	523
41.72	566
41.74	527
41.76	549
41.78	464
41.8	503
41.82	509
41.84	535
41.86	474
41.88	488
41.9	492
41.92	473
41.94	490
41.96	535
41.98	505
42	511
42.02	476
42.04	508
42.06	512
42.08	511
42.1	486
42.12	531
42.14	498
42.16	494
42.18	514
42.2	502
42.22	538
42.24	527
42.26	564
42.28	537
42.3	537
42.32	501
42.34	498
42.36	539
42.38	593
42.4	523
42.42	549
42.44	512
42.46	511
42.48	507
42.5	509
42.52	522
42.54	519
42.56	554
42.58	547
42.6	497
42.62	524
42.64	512
42.66	519
42.68	546
42.7	510
42.72	508
42.74	478
42.76	521
42.78	528
42.8	564
42.82	569
42.84	571
42.86	582
42.88	531
42.9	581
42.92	558
42.94	542
42.96	577
42.98	582
43	544

; Data for range 13
_DRIVE = COUPLED
_STEPTIME = 220.8
_STEPSIZE = 0.02
_STEPMODE = C
_START = 38
_THETA = 19
_2THETA = 38
_KHI = 30
_PHI = 90
_X = 1.99998
_Y = 0.00002
_Z = 0.265
_DETECTORSLIT = out
_AUX1 = 0
_AUX2 = 0
_TIMESTARTED = 5309.689
_KV = 40
_MA = 40
_RANGE_WL = 1.5406
_3DPLANE = 0
_V4_PSD2THETA = 9999
_V4_PSDCHANNEL1 = 0
_V4_PSDAPERTURE = 2.057142
_V4_PSDTYPE = 5
_V4_PSDFIXED = 0
_V4_TEMPCONTROL = 0
_V4_TEMPSTAGE = 0
_V4_TEMPSENSOR = 0
_V4_TEMPERATURE = 303.15
_V4_TEMPRATE = 0
_V4_TEMPDELAY = 0
_V4_TEMPRAMPFLAG = 0
_V4_COUNTERS_MASK = 1
_V4_DRIVES_MASK = 0
_V4_ENCODERS_MASK = 0
_2THETACOUNTS = 1
; 2THETA	Cnt2_D1
38	292
38.02	296
38.04	335
38.06	314
38.08	333
38.1	270
38.12	284
38.14	312
38.16	307
38.18	306
38.2	302
38.22	301
38.24	308
38.26	289
38.28	270
38.3	266
38.32	296
38.34	318
38.36	288
38.38	282
38.4	306
38.42	297
38.44	295
38.46	324
38.48	307
38.5	316
38.52	287
38.54	318
38.56	305
38.58	307
38.6	308
38.62	329
38.64	268
38.66	308
38.68	354
38.7	312
38.72	285
38.74	336
38.76	347
38.78	291
38.8	294
38.82	335
38.84	311
38.86	297
38.88	281
38.9	296
38.92	307
38.94	295
38.96	303
38.98	290
39	307
39.02	347
39.04	337
39.06	323
39.08	380
39.1	338
39.12	349
39.14	344
39.16	341
39.18	387
39.2	367
39.22	400
39.24	392
39.26	387
39.28	382
39.3	407
39.32	402
39.34	386
39.36	436
39.38	403
39.4	419
39.42	418
39.44	443
39.46	388
39.48	397
39.5	426
39.52	409
39.54	390
39.56	423
39.58	431
39.6	412
39.62	444
39.64	419
39.66	433
39.68	416
39.7	459
39.72	483
39.74	476
39.76	495
39.78	470
39.8	484
39.82	505
39.84	516
39.86	478
39.88	563
39.9	525
39.92	531
39.94	521
39.96	531
39.98	564
40	576
40.02	572
40.04	602
40.06	603
40.08	608
40.1	663
40.12	667
40.14	716
40.16	795
40.18	824
40.2	843
40.22	945
40.24	1044
40.26	1271
40.28	1566
40.3	1840
40.32	2273
40.34	2903
40.36	3527
40.38	4507
40.4	5176
40.42	6124
40.44	6933
40.46	7632
40.48	8325
40.5	8696
40.52	8960
40.54	9084
40.56	8680
40.58	8568
40.6	7989
40.62	7241
40.64	6446
40.66	5486
40.68	4593
40.7	3917
40.72	3255
40.74	2628
40.76	2283
40.78	1716
40.8	1517
40.82	1321
40.84	1184
40.86	1050
40.88	914
40.9	885
40.92	821
40.94	763
40.96	830
40.98	752
41	714
41.02	682
41.04	697
41.06	722
41.08	720
41.1	680
41.12	655
41.14	677
41.16	627
41.18	633
41.2	564
41.22	581
41.24	681
41.26	613
41.28	523
41.3	534
41.32	576
41.34	545
41.36	576
41.38	535
41.4	532
41.42	478
41.44	528
41.46	520
41.48	516
41.5	500
41.52	534
41.54	489
41.56	486
41.58	497
41.6	491
41.62	479
41.64	487
41.66	518
41.68	432
41.7	462
41.72	517
41.74	524
41.76	491
41.78	538
41.8	533
41.82	493
41.84	493
41.86	540
41.88	499
41.9	485
41.92	497
41.94	510
41.96	541
41.98	459
42	495
42.02	492
42.04	558
42.06	492
42.08	479
42.1	484
42.12	503
42.14	468
42.16	528
42.18	526
42.2	476
42.22	467
42.24	536
42.26	516
42.28	521
42.3	488
42.32	531
42.34	521
42.36	533
42.38	511
42.4	527
42.42	512
42.44	482
42.46	476
42.48	495
42.5	492
42.52	485
42.54	505
42.56	502
42.58	502
42.6	505
42.62	527
42.64	502
42.66	499
42.68	559
42.7	499
42.72	499
42.74	530
42.76	480
42.78	522
42.8	515
42.82	483
42.84	558
42.86	550
42.88	590
42.9	541
42.92	571
42.94	525
42.96	547
42.98	592
43	517

; Data for range 14
_DRIVE = COUPLED
_STEPTIME = 220.8
_STEPSIZE = 0.02
_STEPMODE = C
_START = 38
_THETA = 19
_2THETA = 38
_KHI = 40
_PHI = 90
_X = 1.99998
_Y = 0.00002
_Z = 0.265
_DETECTORSLIT = out
_AUX1 = 0
_AUX2 = 0
_TIMESTARTED = 5748.783
_KV = 40
_MA = 40
_RANGE_WL = 1.5406
_3DPLANE = 0
_V4_PSD2THETA = 9999
_V4_PSDCHANNEL1 = 0
_V4_PSDAPERTURE = 2.057142
_V4_PSDTYPE = 5
_V4_PSDFIXED = 0
_V4_TEMPCONTROL = 0
_V4_TEMPSTAGE = 0
_V4_TEMPSENSOR = 0
_V4_TEMPERATURE = 303.15
_V4_TEMPRATE = 0
_V4_TEMPDELAY = 0
_V4_TEMPRAMPFLAG = 0
_V4_COUNTERS_MASK = 1
_V4_DRIVES_MASK = 0
_V4_ENCODERS_MASK = 0
_2THETACOUNTS = 1
; 2THETA	Cnt2_D1
38	283
38.02	306
38.04	285
38.06	275
38.08	276
38.1	281
38.12	294
38.14	305
38.16	283
38.18	307
38.2	301
38.22	305
38.24	315
38.26	307
38.28	296
38.3	292
38.32	269
38.34	322
38.36	282
38.38	278
38.4	299
38.42	312
38.44	285
38.46	298
38.48	316
38.5	305
38.52	323
38.54	310
38.56	270
38.58	275
38.6	331
38.62	287
38.64	311
38.66	294
38.68	269
38.7	286
38.72	286
38.74	309
38.76	289
38.78	308
38.8	293
38.82	294
38.84	289
38.86	292
38.88	268
38.9	278
38.92	349
38.94	309
38.96	314
38.98	325
39	311
39.02	308
39.04	330
39.06	330
39.08	341
39.1	364
39.12	368
39.14	356
39.16	321
39.18	376
39.2	370
39.22	358
39.24	389
39.26	365
39.28	382
39.3	355
39.32	401
39.34	378
39.36	392
39.38	359
39.4	377
39.42	381
39.44	401
39.46	411
39.48	420
39.5	394
39.52	357
39.54	387
39.56	414
39.58	390
39.6	388
39.62	403
39.64	388
39.66	462
39.68	410
39.7	430
39.72	445
39.74	413
39.76	448
39.78	420
39.8	447
39.82	440
39.84	494
39.86	510
39.88	464
39.9	480
39.92	518
39.94	529
39.96	537
39.98	532
40	509
40.02	581
40.04	537
40.06	610
40.08	614
40.1	594
40.12	680
40.14	734
40.16	787
40.18	903
40.2	1026
40.22	1254
40.24	1488
40.26	1706
40.28	2057
40.3	2520
40.32	3125
40.34	3565
40.36	4108
40.38	4804
40.4	5317
40.42	5808
40.44	6320
40.46	6755
40.48	7000
40.5	7174
40.52	7250
40.54	7393
40.56	7203
40.58	7082
40.6	6821
40.62	6202
40.64	5779
40.66	5257
40.68	4749
40.7	4025
40.72	3428
40.74	2988
40.76	2440
40.78	2034
40.8	1808
40.82	1419
40.84	1235
40.86	1088
40.88	1014
40.9	873
40.92	813
40.94	689
40.96	730
40.98	690
41	725
41.02	691
41.04	646
41.06	605
41.08	625
41.1	667
41.12	632
41.14	582
41.16	567
41.18	590
41.2	600
41.22	595
41.24	580
41.26	578
41.28	575
41.3	542
41.32	465
41.34	541
41.36	566
41.38	514
41.4	561
41.42	563
41.44	496
41.46	529
41.48	490
41.5	509
41.52	527
41.54	567
41.56	554
41.58	520
41.6	472
41.62	487
41.64	454
41.66	466
41.68	491
41.7	513
41.72	533
41.74	455
41.76	430
41.78	477
41.8	478
41.82	493
41.84	493
41.86	482
41.88	459
41.9	481
41.92	506
41.94	502
41.96	473
41.98	504
42	473
42.02	483
42.04	508
42.06	519
42.08	510
42.1	518
42.12	477
42.14	460
42.16	504
42.18	489
42.2	542
42.22	469
42.24	527
42.26	501
42.28	492
42.3	529
42.32	524
42.34	532
42.36	544
42.38	485
42.4	449
42.42	496
42.44	519
42.46	497
42.48	498
42.5	507
42.52	547
42.54	524
42.56	464
42.58	518
42.6	509
42.62	522
42.64	495
42.66	481
42.68	512
42.7	547
42.72	531
42.74	532
42.76	531
42.78	510
42.8	530
42.82	505
42.84	552
42.86	569
42.88	482
42.9	531
42.92	540
42.94	517
42.96	571
42.98	524
43	537

; Data for range 15
_DRIVE = COUPLED
_STEPTIME = 220.8
_STEPSIZE = 0.02
_STEPMODE = C
_START = 38
_THETA = 19
_2THETA = 38
_KHI = 50
_PHI = 90
_X = 1.99998
_Y = 0.00002
_Z = 0.265
_DETECTORSLIT = out
_AUX1 = 0
_AUX2 = 0
_TIMESTARTED = 6187.861
_KV = 40
_MA = 40
_RANGE_WL = 1.5406
_3DPLANE = 0
_V4_PSD2THETA = 9999
_V4_PSDCHANNEL1 = 0
_V4_PSDAPERTURE = 2.057142
_V4_PSDTYPE = 5
_V4_PSDFIXED = 0
_V4_TEMPCONTROL = 0
_V4_TEMPSTAGE = 0
_V4_TEMPSENSOR = 0
_V4_TEMPERATURE = 303.15
_V4_TEMPRATE = 0
_V4_TEMPDELAY = 0
_V4_TEMPRAMPFLAG = 0
_V4_COUNTERS_MASK = 1
_V4_DRIVES_MASK = 0
_V4_ENCODERS_MASK = 0
_2THETACOUNTS = 1
; 2THETA	Cnt2_D1
38	257
38.02	278
38.04	269
38.06	272
38.08	275
38.1	271
38.12	293
38.14	283
38.16	262
38.18	289
38.2	280
38.22	283
38.24	316
38.26	277
38.28	249
38.3	304
38.32	279
38.34	272
38.36	298
38.38	305
38.4	273
38.42	267
38.44	265
38.46	288
38.48	293
38.5	288
38.52	296
38.54	287
38.56	315
38.58	300
38.6	278
38.62	289
38.64	276
38.66	295
38.68	283
38.7	250
38.72	281
38.74	310
38.76	293
38.78	280
38.8	310
38.82	273
38.84	279
38.86	289
38.88	251
38.9	291
38.92	296
38.94	325
38.96	295
38.98	309
39	311
39.02	319
39.04	345
39.06	357
39.08	288
39.1	309
39.12	357
39.14	288
39.16	303
39.18	327
39.2	336
39.22	319
39.24	368
39.26	319
39.28	358
39.3	339
39.32	388
39.34	351
39.36	388
39.38	356
39.4	343
39.42	399
39.44	372
39.46	351
39.48	378
39.5	371
39.52	378
39.54	396
39.56	386
39.58	388
39.6	425
39.62	423
39.64	367
39.66	411
39.68	405
39.7	394
39.72	403
39.74	459
39.76	445
39.78	438
39.8	425
39.82	448
39.84	425
39.86	444
39.88	462
39.9	480
39.92	483
39.94	485
39.96	506
39.98	529
40	527
40.02	603
40.04	579
40.06	600
40.08	679
40.1	751
40.12	809
40.14	953
40.16	1108
40.18	1274
40.2	1533
40.22	1760
40.24	2087
40.26	2419
40.28	2721
40.3	3042
40.32	3430
40.34	3631
40.36	4064
40.38	4201
40.4	4342
40.42	4712
40.44	4847
40.46	4829
40.48	5000
40.5	4985
40.52	5098
40.54	5072
40.56	5145
40.58	4962
40.6	4736
40.62	4762
40.64	4553
40.66	4321
40.68	4220
40.7	3828
40.72	3454
40.74	3136
40.76	2816
40.78	2447
40.8	2123
40.82	1845
40.84	1572
40.86	1293
40.88	1175
40.9	991
40.92	905
40.94	797
40.96	810
40.98	652
41	652
41.02	634
41.04	621
41.06	605
41.08	611
41.1	601
41.12	577
41.14	525
41.16	561
41.18	479
41.2	523
41.22	545
41.24	528
41.26	544
41.28	509
41.3	530
41.32	492
41.34	532
41.36	529
41.38	561
41.4	486
41.42	497
41.44	538
41.46	500
41.48	491
41.5	450
41.52	502
41.54	524
41.56	520
41.58	482
41.6	499
41.62	524
41.64	512
41.66	503
41.68	470
41.7	470
41.72	472
41.74	506
41.76	473
41.78	483
41.8	483
41.82	440
41.84	453
41.86	469
41.88	455
41.9	488
41.92	470
41.94	481
41.96	454
41.98	463
42	486
42.02	447
42.04	476
42.06	492
42.08	503
42.1	487
42.12	482
42.14	479
42.16	484
42.18	473
42.2	471
42.22	478
42.24	493
42.26	507
42.28	469
42.3	511
42.32	474
42.34	497
42.36	527
42.38	453
42.4	466
42.42	510
42.44	488
42.46	477
42.48	507
42.5	481
42.52	496
42.54	537
42.56	471
42.58	487
42.6	498
42.62	522
42.64	501
42.66	524
42.68	538
42.7	458
42.72	506
42.74	475
42.76	520
42.78	501
42.8	530
42.82	489
42.84	506
42.86	533
42.88	499
42.9	517
42.92	491
42.94	517
42.96	511
42.98	504
43	514

; Data for range 16
_DRIVE = COUPLED
_STEPTIME = 220.8
_STEPSIZE = 0.02
_STEPMODE = C
_START = 38
_THETA = 19
_2THETA = 38
_KHI = 60
_PHI = 90
_X = 1.99998
_Y = 0.00002
_Z = 0.265
_DETECTORSLIT = out
_AUX1 = 0
_AUX2 = 0
_TIMESTARTED = 6626.971
_KV = 40
_MA = 40
_RANGE_WL = 1.5406
_3DPLANE = 0
_V4_PSD2THETA = 9999
_V4_PSDCHANNEL1 = 0
_V4_PSDAPERTURE = 2.057142
_V4_PSDTYPE = 5
_V4_PSDFIXED = 0
_V4_TEMPCONTROL = 0
_V4_TEMPSTAGE = 0
_V4_TEMPSENSOR = 0
_V4_TEMPERATURE = 303.15
_V4_TEMPRATE = 0
_V4_TEMPDELAY = 0
_V4_TEMPRAMPFLAG = 0
_V4_COUNTERS_MASK = 1
_V4_DRIVES_MASK = 0
_V4_ENCODERS_MASK = 0
_2THETACOUNTS = 1
; 2THETA	Cnt2_D1
38	290
38.02	257
38.04	248
38.06	268
38.08	271
38.1	302
38.12	266
38.14	293
38.16	265
38.18	271
38.2	298
38.22	276
38.24	255
38.26	269
38.28	258
38.3	262
38.32	248
38.34	283
38.36	290
38.38	276
38.4	274
38.42	261
38.44	269
38.46	261
38.48	293
38.5	282
38.52	265
38.54	281
38.56	292
38.58	236
38.6	262
38.62	292
38.64	279
38.66	270
38.68	269
38.7	323
38.72	259
38.74	302
38.76	289
38.78	302
38.8	289
38.82	279
38.84	311
38.86	268
38.88	291
38.9	295
38.92	294
38.94	297
38.96	275
38.98	278
39	296
39.02	282
39.04	267
39.06	311
39.08	305
39.1	316
39.12	313
39.14	312
39.16	333
39.18	318
39.2	299
39.22	330
39.24	329
39.26	302
39.28	349
39.3	312
39.32	321
39.34	315
39.36	334
39.38	302
39.4	347
39.42	319
39.44	362
39.46	344
39.48	331
39.5	385
39.52	359
39.54	401
39.56	343
39.58	354
39.6	378
39.62	399
39.64	372
39.66	392
39.68	357
39.7	377
39.72	418
39.74	405
39.76	372
39.78	423
39.8	436
39.82	408
39.84	434
39.86	464
39.88	435
39.9	443
39.92	490
39.94	568
39.96	590
39.98	635
40	682
40.02	823
40.04	878
40.06	1044
40.08	1218
40.1	1299
40.12	1535
40.14	1643
40.16	1812
40.18	1967
40.2	2230
40.22	2371
40.24	2461
40.26	2587
40.28	2821
40.3	2878
40.32	2977
40.34	2994
40.36	3066
40.38	3232
40.4	3292
40.42	3481
40.44	3498
40.46	3463
40.48	3370
40.5	3489
40.52	3545
40.54	3614
40.56	3546
40.58	3558
40.6	3471
40.62	3481
40.64	3496
40.66	3440
40.68	3351
40.7	3284
40.72	3038
40.74	2979
40.76	2859
40.78	2657
40.8	2666
40.82	2380
40.84	2175
40.86	1874
40.88	1699
40.9	1484
40.92	1343
40.94	1302
40.96	1057
40.98	964
41	826
41.02	772
41.04	673
41.06	649
41.08	626
41.1	639
41.12	582
41.14	559
41.16	505
41.18	528
41.2	501
41.22	487
41.24	524
41.26	486
41.28	481
41.3	470
41.32	480
41.34	494
41.36	464
41.38	475
41.4	483
41.42	458
41.44	483
41.46	463
41.48	477
41.5	507
41.52	500
41.54	471
41.56	458
41.58	452
41.6	441
41.62	454
41.64	464
41.66	446
41.68	472
41.7	480
41.72	451
41.74	440
41.76	487
41.78	471
41.8	416
41.82	443
41.84	483
41.86	437
41.88	418
41.9	482
41.92	433
41.94	426
41.96	450
41.98	459
42	457
42.02	435
42.04	436
42.06	455
42.08	464
42.1	444
42.12	480
42.14	468
42.16	451
42.18	454
42.2	508
42.22	492
42.24	465
42.26	442
42.28	439
42.3	456
42.32	490
42.34	470
42.36	493
42.38	485
42.4	475
42.42	465
42.44	448
42.46	442
42.48	470
42.5	478
42.52	511
42.54	451
42.56	492
42.58	519
42.6	512
42.62	451
42.64	493
42.66	462
42.68	489
42.7	479
42.72	469
42.74	499
42.76	467
42.78	436
42.8	507
42.82	506
42.84	498
42.86	532
42.88	490
42.9	508
42.92	523
42.94	475
42.96	508
42.98	516
43	478

; Data for range 17
_DRIVE = COUPLED
_STEPTIME = 220.8
_STEPSIZE = 0.02
_STEPMODE = C
_START = 38
_THETA = 19
_2THETA = 38
_KHI = 70
_PHI = 90
_X = 1.99998
_Y = 0.00002
_Z = 0.265
_DETECTORSLIT = out
_AUX1 = 0
_AUX2 = 0
_TIMESTARTED = 7066.096
_KV = 40
_MA = 40
_RANGE_WL = 1.5406
_3DPLANE = 0
_V4_PSD2THETA = 9999
_V4_PSDCHANNEL1 = 0
_V4_PSDAPERTURE = 2.057142
_V4_PSDTYPE = 5
_V4_PSDFIXED = 0
_V4_TEMPCONTROL = 0
_V4_TEMPSTAGE = 0
_V4_TEMPSENSOR = 0
_V4_TEMPERATURE = 303.15
_V4_TEMPRATE = 0
_V4_TEMPDELAY = 0
_V4_TEMPRAMPFLAG = 0
_V4_COUNTERS_MASK = 1
_V4_DRIVES_MASK = 0
_V4_ENCODERS_MASK = 0
_2THETACOUNTS = 1
; 2THETA	Cnt2_D1
38	223
38.02	226
38.04	255
38.06	250
38.08	254
38.1	221
38.12	258
38.14	248
38.16	242
38.18	229
38.2	225
38.22	263
38.24	263
38.26	264
38.28	243
38.3	261
38.32	247
38.34	258
38.36	216
38.38	251
38.4	258
38.42	224
38.44	269
38.46	279
38.48	216
38.5	250
38.52	236
38.54	222
38.56	244
38.58	224
38.6	277
38.62	264
38.64	223
38.66	225
38.68	248
38.7	259
38.72	281
38.74	226
38.76	284
38.78	280
38.8	258
38.82	253
38.84	256
38.86	267
38.88	275
38.9	271
38.92	280
38.94	259
38.96	291
38.98	295
39	274
39.02	263
39.04	263
39.06	281
39.08	293
39.1	255
39.12	266
39.14	282
39.16	270
39.18	283
39.2	252
39.22	277
39.24	300
39.26	279
39.28	281
39.3	252
39.32	310
39.34	296
39.36	300
39.38	317
39.4	292
39.42	321
39.44	331
39.46	326
39.48	318
39.5	358
39.52	332
39.54	300
39.56	332
39.58	343
39.6	324
39.62	371
39.64	420
39.66	380
39.68	385
39.7	479
39.72	469
39.74	512
39.76	516
39.78	587
39.8	646
39.82	698
39.84	744
39.86	850
39.88	892
39.9	928
39.92	1027
39.94	1062
39.96	1124
39.98	1247
40	1236
40.02	1352
40.04	1376
40.06	1365
40.08	1449
40.1	1546
40.12	1517
40.14	1592
40.16	1679
40.18	1691
40.2	1748
40.22	1766
40.24	1834
40.26	1838
40.28	1941
40.3	1930
40.32	2002
40.34	1957
40.36	2046
40.38	2127
40.4	2117
40.42	2093
40.44	2032
40.46	2006
40.48	2035
40.5	2133
40.52	2066
40.54	2070
40.56	2095
40.58	2033
40.6	2044
40.62	2069
40.64	2032
40.66	2067
40.68	2097
40.7	2010
40.72	2031
40.74	1894
40.76	2023
40.78	1893
40.8	1901
40.82	1917
40.84	1886
40.86	1847
40.88	1763
40.9	1693
40.92	1624
40.94	1627
40.96	1542
40.98	1406
41	1401
41.02	1320
41.04	1170
41.06	1015
41.08	997
41.1	935
41.12	868
41.14	784
41.16	727
41.18	639
41.2	583
41.22	591
41.24	548
41.26	511
41.28	516
41.3	495
41.32	449
41.34	469
41.36	471
41.38	461
41.4	447
41.42	431
41.44	433
41.46	423
41.48	436
41.5	449
41.52	473
41.54	471
41.56	436
41.58	423
41.6	421
41.62	429
41.64	446
41.66	407
41.68	424
41.7	413
41.72	407
41.74	420
41.76	391
41.78	411
41.8	443
41.82	484
41.84	444
41.86	456
41.88	436
41.9	420
41.92	432
41.94	442
41.96	421
41.98	433
42	426
42.02	433
42.04	401
42.06	431
42.08	412
42.1	468
42.12	479
42.14	440
42.16	443
42.18	388
42.2	452
42.22	484
42.24	494
42.26	471
42.28	449
42.3	428
42.32	455
42.34	396
42.36	461
42.38	453
42.4	446
42.42	430
42.44	425
42.46	402
42.48	431
42.5	441
42.52	439
42.54	486
42.56	449
42.58	448
42.6	475
42.62	532
42.64	469
42.66	455
42.68	520
42.7	465
42.72	480
42.74	478
42.76	489
42.78	483
42.8	449
42.82	402
42.84	481
42.86	494
42.88	484
42.9	525
42.92	482
42.94	461
42.96	460
42.98	458
43	492

; Data for range 18
_DRIVE = COUPLED
_STEPTIME = 220.8
_STEPSIZE = 0.02
_STEPMODE = C
_START = 38
_THETA = 19
_2THETA = 38
_KHI = 80
_PHI = 90
_X = 1.99998
_Y = 0.00002
_Z = 0.265
_DETECTORSLIT = out
_AUX1 = 0
_AUX2 = 0
_TIMESTARTED = 7505.221
_KV = 40
_MA = 40
_RANGE_WL = 1.5406
_3DPLANE = 0
_V4_PSD2THETA = 9999
_V4_PSDCHANNEL1 = 0
_V4_PSDAPERTURE = 2.057142
_V4_PSDTYPE = 5
_V4_PSDFIXED = 0
_V4_TEMPCONTROL = 0
_V4_TEMPSTAGE = 0
_V4_TEMPSENSOR = 0
_V4_TEMPERATURE = 303.15
_V4_TEMPRATE = 0
_V4_TEMPDELAY = 0
_V4_TEMPRAMPFLAG = 0
_V4_COUNTERS_MASK = 1
_V4_DRIVES_MASK = 0
_V4_ENCODERS_MASK = 0
_2THETACOUNTS = 1
; 2THETA	Cnt2_D1
38	111
38.02	102
38.04	104
38.06	102
38.08	108
38.1	109
38.12	84
38.14	92
38.16	94
38.18	87
38.2	93
38.22	90
38.24	130
38.26	116
38.28	108
38.3	97
38.32	89
38.34	87
38.36	98
38.38	104
38.4	100
38.42	105
38.44	111
38.46	95
38.48	96
38.5	99
38.52	103
38.54	126
38.56	105
38.58	107
38.6	78
38.62	102
38.64	104
38.66	115
38.68	106
38.7	112
38.72	86
38.74	95
38.76	128
38.78	103
38.8	108
38.82	138
38.84	125
38.86	128
38.88	112
38.9	107
38.92	105
38.94	125
38.96	129
38.98	102
39	123
39.02	131
39.04	118
39.06	144
39.08	140
39.1	111
39.12	142
39.14	133
39.16	126
39.18	129
39.2	118
39.22	112
39.24	145
39.26	142
39.28	131
39.3	126
39.32	127
39.34	146
39.36	143
39.38	128
39.4	139
39.42	141
39.44	180
39.46	151
39.48	161
39.5	145
39.52	127
39.54	169
39.56	176
39.58	170
39.6	168
39.62	175
39.64	160
39.66	180
39.68	179
39.7	183
39.72	187
39.74	195
39.76	194
39.78	226
39.8	230
39.82	224
39.84	220
39.86	241
39.88	271
39.9	304
39.92	296
39.94	307
39.96	338
39.98	317
40	310
40.02	373
40.04	379
40.06	336
40.08	381
40.1	436
40.12	426
40.14	417
40.16	459
40.18	467
40.2	491
40.22	493
40.24	510
40.26	518
40.28	508
40.3	548
40.32	587
40.34	597
40.36	582
40.38	621
40.4	668
40.42	599
40.44	578
40.46	642
40.48	659
40.5	651
40.52	665
40.54	707
40.56	700
40.58	681
40.6	703
40.62	674
40.64	710
40.66	735
40.68	714
40.7	721
40.72	757
40.74	741
40.76	758
40.78	778
40.8	767
40.82	813
40.84	752
40.86	763
40.88	722
40.9	748
40.92	706
40.94	735
40.96	771
40.98	687
41	693
41.02	737
41.04	678
41.06	673
41.08	702
41.1	648
41.12	623
41.14	622
41.16	647
41.18	553
41.2	614
41.22	485
41.24	513
41.26	516
41.28	491
41.3	441
41.32	460
41.34	405
41.36	425
41.38	410
41.4	387
41.42	353
41.44	408
41.46	351
41.48	357
41.5	339
41.52	309
41.54	316
41.56	302
41.58	303
41.6	317
41.62	336
41.64	306
41.66	302
41.68	316
41.7	302
41.72	317
41.74	337
41.76	265
41.78	297
41.8	308
41.82	310
41.84	302
41.86	296
41.88	280
41.9	265
41.92	300
41.94	279
41.96	289
41.98	344
42	332
42.02	310
42.04	290
42.06	318
42.08	311
42.1	331
42.12	337
42.14	320
42.16	314
42.18	332
42.2	345
42.22	326
42.24	309
42.26	315
42.28	311
42.3	305
42.32	328
42.34	324
42.36	294
42.38	351
42.4	357
42.42	355
42.44	371
42.46	299
42.48	369
42.5	322
42.52	378
42.54	347
42.56	360
42.58	346
42.6	357
42.62	376
42.64	378
42.66	394
42.68	349
42.7	346
42.72	373
42.74	381
42.76	347
42.78	351
42.8	381
42.82	350
42.84	352
42.86	331
42.88	358
42.9	360
42.92	389
42.94	406
42.96	364
42.98	383
43	392