File: Examples/Temperature.uxd
;content of D:\DATA\V_Thery\manip four\TiO2(001)\C5-100nm\parall faisc\TiO2(001)-40-100.raw - (Diffrac Plus V4 file)
_FILEVERSION = 3
_SAMPLE
_+SAMPLE
_USER = Lab Manager
_GONIOMETER_CODE = 20
_STAGE_CODE = 4
; Goniometer : D8 theta/2theta, stage : Open eulerian craddle
_SAMPLE_CHANGER_CODE = 0
_ATTACHMENTS_CODE = 0
_GONIOMETER_RADIUS = 390
_FIXED_DETSLIT = 0
_MONOCHROMATOR = 0
; Incident beam monochromator : None
_BETA_FILTER = N
_ANALYZER_CODE = 0
; Received beam analyzer : None
_DATEMEASURED = 10-Feb-2016 17:25:12
_RUNTIME = 45.15763
_WL_UNIT = A
_WL1 = 1.5406
_WL2 = 1.54439
_WL3 = 1.39222
_WLRATIO = 0.5
_ANODE = Cu
_V4_INF_USER = Lab Manager
_V4_INF_CREATOR = V5Converter
_V4_INF_CREATOR_VERSION = 3.3.50.0

; Data for range 1
_DRIVE = COUPLED
_STEPTIME = 19.2
_STEPSIZE = 0.01
_STEPMODE = C
_START = 61.5
_THETA = 30.75
_2THETA = 61.5
_KHI = -0.169602
_PHI = 0.000039
_X = 0.917012
_Y = -0.570996
_Z = 1.479004
_DETECTORSLIT = out
_AUX1 = 0
_AUX2 = -2.4
_DELAY = 120
_TIMESTARTED = 0
_KV = 40
_MA = 40
_RANGE_WL = 1.5406
_3DPLANE = 0
_V4_PSD2THETA = 9999
_V4_PSDCHANNEL1 = 0
_V4_PSDAPERTURE = 2.057142
_V4_PSDTYPE = 5
_V4_PSDFIXED = 0
_V4_TEMPCONTROL = 0
_V4_TEMPSTAGE = 0
_V4_TEMPSENSOR = 0
_V4_TEMPERATURE = 313.6949
_V4_TEMPRATE = 0
_V4_TEMPDELAY = 0
_V4_TEMPRAMPFLAG = 0
_V4_COUNTERS_MASK = 1
_V4_DRIVES_MASK = 0
_V4_ENCODERS_MASK = 0
_2THETACOUNTS = 1
; 2THETA	Cnt2_D1
61.5	7.000000
61.51	11
61.52	10
61.53	4.000000
61.54	11
61.55	8.000000
61.56	11
61.57	13
61.58	11
61.59	9.000000
61.6	9.000000
61.61	18
61.62	12
61.63	10
61.64	10
61.65	13
61.66	13
61.67	17
61.68	8.000000
61.69	18
61.7	11
61.71	11
61.72	8.000000
61.73	15
61.74	12
61.75	16
61.76	9.000000
61.77	18
61.78	16
61.79	16
61.8	19
61.81	10
61.82	21
61.83	13
61.84	10
61.85	22
61.86	22
61.87	23
61.88	14
61.89	16
61.9	30
61.91	23
61.92	24
61.93	20
61.94	24
61.95	30
61.96	39
61.97	24
61.98	34
61.99	28
62	33
62.01	32
62.02	26
62.03	38
62.04	29
62.05	54
62.06	35
62.07	36
62.08	41
62.09	34
62.1	50
62.11	49
62.12	54
62.13	41
62.14	49
62.15	52
62.16	41
62.17	61
62.18	50
62.19	65
62.2	58
62.21	53
62.22	68
62.23	76
62.24	71
62.25	77
62.26	78
62.27	76
62.28	92
62.29	77
62.3	95
62.31	81
62.32	100
62.33	129
62.34	117
62.35	117
62.36	122
62.37	137
62.38	168
62.39	152
62.4	163
62.41	180
62.42	173
62.43	215
62.44	233
62.45	237
62.46	248
62.47	321
62.48	281
62.49	342
62.5	321
62.51	373
62.52	411
62.53	432
62.54	520
62.55	619
62.56	676
62.57	729
62.58	861
62.59	961
62.6	1066
62.61	1277
62.62	1499
62.63	1759
62.64	2164
62.65	2715
62.66	3573
62.67	4892
62.68	6847
62.69	11014
62.7	20762
62.71	45764
62.72	104869
62.73	175493
62.74	207007
62.75	183264
62.76	116891
62.77	58544
62.78	26277
62.79	12204
62.8	7052
62.81	4574
62.82	3226
62.83	2531
62.84	2006
62.85	1617
62.86	1384
62.87	1237
62.88	1058
62.89	982
62.9	891
62.91	703
62.92	604
62.93	508
62.94	428
62.95	370
62.96	328
62.97	316
62.98	298
62.99	269
63	218
63.01	231
63.02	205
63.03	186
63.04	166
63.05	177
63.06	153
63.07	136
63.08	144
63.09	125
63.1	109
63.11	115
63.12	112
63.13	103
63.14	108
63.15	101
63.16	100
63.17	78
63.18	94
63.19	80
63.2	68
63.21	73
63.22	75
63.23	71
63.24	67
63.25	64
63.26	52
63.27	68
63.28	62
63.29	56
63.3	62
63.31	49
63.32	58
63.33	44
63.34	50
63.35	56
63.36	40
63.37	44
63.38	28
63.39	29
63.4	36
63.41	41
63.42	43
63.43	34
63.44	33
63.45	26
63.46	29
63.47	26
63.48	38
63.49	25
63.5	37
63.51	18
63.52	34
63.53	22
63.54	23
63.55	30
63.56	27
63.57	19
63.58	14
63.59	22
63.6	21
63.61	27
63.62	25
63.63	21
63.64	24
63.65	23
63.66	22
63.67	21
63.68	24
63.69	32
63.7	19
63.71	19
63.72	21
63.73	23
63.74	10
63.75	22
63.76	16
63.77	14
63.78	19
63.79	16
63.8	20
63.81	18
63.82	12
63.83	16
63.84	20
63.85	14
63.86	13
63.87	17
63.88	18
63.89	18
63.9	17
63.91	22
63.92	20
63.93	16
63.94	14
63.95	18
63.96	18
63.97	17
63.98	12
63.99	25
64	26
64.01	36
64.02	17
64.03	19
64.04	13
64.05	19
64.06	15
64.07	21
64.08	23
64.09	30
64.1	34
64.11	24
64.12	12
64.13	32
64.14	18
64.15	22
64.16	22
64.17	13
64.18	20
64.19	21
64.2	25
64.21	16
64.22	14
64.23	29
64.24	17
64.25	23
64.26	28
64.27	27
64.28	36
64.29	47
64.3	27
64.31	38
64.32	27
64.33	30
64.34	31
64.35	26
64.36	27
64.37	35
64.38	30
64.39	24
64.4	51
64.41	43
64.42	25
64.43	43
64.44	39
64.45	45
64.46	39
64.47	55
64.48	48
64.49	63
64.5	60
64.51	68
64.52	66
64.53	59
64.54	72
64.55	86
64.56	82
64.57	98
64.58	115
64.59	118
64.6	141
64.61	135
64.62	141
64.63	162
64.64	180
64.65	198
64.66	221
64.67	264
64.68	281
64.69	278
64.7	354
64.71	363
64.72	353
64.73	438
64.74	426
64.75	479
64.76	504
64.77	495
64.78	614
64.79	660
64.8	678
64.81	781
64.82	834
64.83	955
64.84	1006
64.85	1118
64.86	1194
64.87	1193
64.88	1356
64.89	1401
64.9	1554
64.91	1669
64.92	1750
64.93	1775
64.94	1828
64.95	1823
64.96	1824
64.97	1808
64.98	1743
64.99	1655
65	1565
65.01	1461
65.02	1313
65.03	1227
65.04	1056
65.05	954
65.06	833
65.07	715
65.08	698
65.09	583
65.1	462
65.11	455
65.12	403
65.13	331
65.14	320
65.15	285
65.16	250
65.17	197
65.18	169
65.19	182
65.2	144
65.21	146
65.22	135
65.23	103
65.24	91
65.25	77
65.26	79
65.27	70
65.28	66
65.29	59
65.3	78
65.31	53
65.32	50
65.33	48
65.34	46
65.35	50
65.36	41
65.37	34
65.38	27
65.39	34
65.4	30
65.41	24
65.42	27
65.43	23
65.44	24
65.45	28
65.46	23
65.47	31
65.48	20
65.49	28
65.5	28
65.51	16
65.52	21
65.53	30
65.54	17
65.55	15
65.56	18
65.57	15
65.58	21
65.59	14
65.6	8.000000
65.61	20
65.62	14
65.63	15
65.64	17
65.65	14
65.66	16
65.67	14
65.68	16
65.69	24
65.7	37
65.71	34
65.72	19
65.73	28
65.74	54
65.75	62
65.76	57
65.77	77
65.78	121
65.79	126
65.8	148
65.81	171
65.82	183
65.83	221
65.84	279
65.85	292
65.86	277
65.87	334
65.88	321
65.89	309
65.9	286
65.91	229
65.92	175
65.93	141
65.94	107
65.95	80
65.96	51
65.97	26
65.98	21
65.99	17
66	15
66.01	17
66.02	16
66.03	9.000000
66.04	12
66.05	11
66.06	7.000000
66.07	14
66.08	1.000000
66.09	6.000000
66.1	9.000000
66.11	5.000000
66.12	8.000000
66.13	7.000000
66.14	11
66.15	7.000000
66.16	14
66.17	10
66.18	7.000000
66.19	8.000000
66.2	4.000000
66.21	8.000000
66.22	2.000000
66.23	9.000000
66.24	4.000000
66.25	5.000000
66.26	9.000000
66.27	3.000000
66.28	9.000000
66.29	15
66.3	4.000000
66.31	10
66.32	8.000000
66.33	6.000000
66.34	5.000000
66.35	9.000000
66.36	4.000000
66.37	8.000000
66.38	7.000000
66.39	4.000000
66.4	5.000000
66.41	5.000000
66.42	11
66.43	10
66.44	3.000000
66.45	6.000000
66.46	7.000000
66.47	12
66.48	6.000000
66.49	9.000000
66.5	2.000000

; Data for range 2
_DRIVE = COUPLED
_STEPTIME = 19.2
_STEPSIZE = 0.01
_STEPMODE = C
_START = 61.5
_THETA = 30.75
_2THETA = 61.5
_KHI = -0.169602
_PHI = 0.000039
_X = 0.917012
_Y = -0.570996
_Z = 1.479004
_DETECTORSLIT = out
_AUX1 = 0
_AUX2 = -2.4
_DELAY = 120
_TIMESTARTED = 206.8644
_KV = 40
_MA = 40
_RANGE_WL = 1.5406
_3DPLANE = 0
_V4_PSD2THETA = 9999
_V4_PSDCHANNEL1 = 0
_V4_PSDAPERTURE = 2.057142
_V4_PSDTYPE = 5
_V4_PSDFIXED = 0
_V4_TEMPCONTROL = 0
_V4_TEMPSTAGE = 0
_V4_TEMPSENSOR = 0
_V4_TEMPERATURE = 318.5273
_V4_TEMPRATE = 0
_V4_TEMPDELAY = 0
_V4_TEMPRAMPFLAG = 0
_V4_COUNTERS_MASK = 1
_V4_DRIVES_MASK = 0
_V4_ENCODERS_MASK = 0
_2THETACOUNTS = 1
; 2THETA	Cnt2_D1
61.5	8.000000
61.51	8.000000
61.52	9.000000
61.53	5.000000
61.54	12
61.55	10
61.56	7.000000
61.57	8.000000
61.58	12
61.59	12
61.6	12
61.61	8.000000
61.62	9.000000
61.63	7.000000
61.64	13
61.65	8.000000
61.66	13
61.67	19
61.68	11
61.69	21
61.7	14
61.71	15
61.72	14
61.73	14
61.74	19
61.75	16
61.76	16
61.77	17
61.78	18
61.79	18
61.8	10
61.81	18
61.82	19
61.83	19
61.84	18
61.85	20
61.86	19
61.87	20
61.88	24
61.89	22
61.9	23
61.91	21
61.92	27
61.93	31
61.94	31
61.95	32
61.96	36
61.97	30
61.98	29
61.99	24
62	35
62.01	39
62.02	42
62.03	42
62.04	39
62.05	35
62.06	30
62.07	38
62.08	30
62.09	38
62.1	28
62.11	49
62.12	47
62.13	53
62.14	48
62.15	59
62.16	48
62.17	58
62.18	61
62.19	50
62.2	64
62.21	66
62.22	63
62.23	71
62.24	78
62.25	66
62.26	62
62.27	94
62.28	89
62.29	77
62.3	104
62.31	104
62.32	112
62.33	95
62.34	103
62.35	120
62.36	149
62.37	136
62.38	158
62.39	153
62.4	165
62.41	198
62.42	184
62.43	206
62.44	227
62.45	254
62.46	258
62.47	264
62.48	320
62.49	348
62.5	371
62.51	392
62.52	421
62.53	470
62.54	559
62.55	614
62.56	644
62.57	767
62.58	904
62.59	917
62.6	1128
62.61	1320
62.62	1561
62.63	1896
62.64	2366
62.65	2853
62.66	3865
62.67	5165
62.68	7528
62.69	12514
62.7	24234
62.71	56872
62.72	123260
62.73	187346
62.74	205710
62.75	167676
62.76	100688
62.77	48143
62.78	21357
62.79	10443
62.8	6186
62.81	4289
62.82	3089
62.83	2289
62.84	1911
62.85	1542
62.86	1311
62.87	1152
62.88	1047
62.89	984
62.9	881
62.91	677
62.92	560
62.93	419
62.94	424
62.95	375
62.96	346
62.97	301
62.98	299
62.99	256
63	222
63.01	214
63.02	210
63.03	193
63.04	167
63.05	167
63.06	166
63.07	124
63.08	132
63.09	110
63.1	130
63.11	92
63.12	89
63.13	99
63.14	87
63.15	77
63.16	98
63.17	80
63.18	89
63.19	89
63.2	64
63.21	60
63.22	75
63.23	62
63.24	62
63.25	57
63.26	53
63.27	52
63.28	65
63.29	51
63.3	53
63.31	42
63.32	50
63.33	37
63.34	42
63.35	41
63.36	47
63.37	41
63.38	42
63.39	29
63.4	30
63.41	31
63.42	30
63.43	30
63.44	26
63.45	35
63.46	27
63.47	28
63.48	35
63.49	23
63.5	22
63.51	33
63.52	34
63.53	37
63.54	28
63.55	19
63.56	29
63.57	24
63.58	19
63.59	27
63.6	21
63.61	21
63.62	24
63.63	22
63.64	29
63.65	25
63.66	23
63.67	18
63.68	19
63.69	20
63.7	27
63.71	24
63.72	24
63.73	23
63.74	16
63.75	16
63.76	23
63.77	23
63.78	18
63.79	21
63.8	18
63.81	22
63.82	13
63.83	24
63.84	18
63.85	18
63.86	18
63.87	18
63.88	18
63.89	26
63.9	24
63.91	29
63.92	19
63.93	19
63.94	18
63.95	11
63.96	17
63.97	30
63.98	21
63.99	16
64	14
64.01	17
64.02	18
64.03	17
64.04	21
64.05	17
64.06	18
64.07	18
64.08	20
64.09	19
64.1	20
64.11	33
64.12	17
64.13	25
64.14	20
64.15	27
64.16	23
64.17	17
64.18	23
64.19	15
64.2	21
64.21	22
64.22	32
64.23	15
64.24	27
64.25	22
64.26	19
64.27	34
64.28	22
64.29	25
64.3	29
64.31	39
64.32	27
64.33	36
64.34	28
64.35	27
64.36	29
64.37	34
64.38	28
64.39	39
64.4	35
64.41	46
64.42	34
64.43	38
64.44	48
64.45	44
64.46	51
64.47	42
64.48	55
64.49	49
64.5	62
64.51	58
64.52	56
64.53	85
64.54	77
64.55	78
64.56	89
64.57	105
64.58	128
64.59	124
64.6	127
64.61	164
64.62	145
64.63	182
64.64	213
64.65	193
64.66	222
64.67	248
64.68	291
64.69	333
64.7	328
64.71	408
64.72	398
64.73	447
64.74	480
64.75	469
64.76	516
64.77	545
64.78	574
64.79	697
64.8	700
64.81	762
64.82	826
64.83	903
64.84	1007
64.85	1084
64.86	1233
64.87	1331
64.88	1350
64.89	1471
64.9	1600
64.91	1682
64.92	1741
64.93	1790
64.94	1883
64.95	1778
64.96	1722
64.97	1774
64.98	1706
64.99	1550
65	1531
65.01	1383
65.02	1219
65.03	1196
65.04	1056
65.05	925
65.06	781
65.07	716
65.08	641
65.09	569
65.1	473
65.11	422
65.12	365
65.13	345
65.14	299
65.15	238
65.16	229
65.17	215
65.18	198
65.19	171
65.2	168
65.21	132
65.22	118
65.23	117
65.24	119
65.25	104
65.26	67
65.27	81
65.28	69
65.29	53
65.3	57
65.31	55
65.32	52
65.33	42
65.34	55
65.35	42
65.36	44
65.37	35
65.38	38
65.39	23
65.4	26
65.41	36
65.42	28
65.43	32
65.44	22
65.45	27
65.46	25
65.47	22
65.48	11
65.49	28
65.5	24
65.51	10
65.52	21
65.53	24
65.54	10
65.55	12
65.56	16
65.57	12
65.58	18
65.59	15
65.6	26
65.61	13
65.62	17
65.63	16
65.64	15
65.65	17
65.66	15
65.67	15
65.68	20
65.69	24
65.7	22
65.71	33
65.72	20
65.73	39
65.74	43
65.75	60
65.76	75
65.77	84
65.78	92
65.79	116
65.8	141
65.81	170
65.82	198
65.83	238
65.84	237
65.85	267
65.86	290
65.87	303
65.88	334
65.89	280
65.9	266
65.91	248
65.92	230
65.93	157
65.94	106
65.95	69
65.96	44
65.97	31
65.98	34
65.99	16
66	16
66.01	18
66.02	10
66.03	10
66.04	11
66.05	7.000000
66.06	11
66.07	5.000000
66.08	13
66.09	7.000000
66.1	8.000000
66.11	9.000000
66.12	11
66.13	7.000000
66.14	3.000000
66.15	8.000000
66.16	5.000000
66.17	6.000000
66.18	7.000000
66.19	7.000000
66.2	6.000000
66.21	10
66.22	4.000000
66.23	9.000000
66.24	7.000000
66.25	11
66.26	6.000000
66.27	10
66.28	8.000000
66.29	7.000000
66.3	6.000000
66.31	7.000000
66.32	9.000000
66.33	10
66.34	8.000000
66.35	4.000000
66.36	6.000000
66.37	16
66.38	3.000000
66.39	5.000000
66.4	14
66.41	9.000000
66.42	5.000000
66.43	5.000000
66.44	11
66.45	4.000000
66.46	7.000000
66.47	11
66.48	7.000000
66.49	6.000000
66.5	8.000000

; Data for range 3
_DRIVE = COUPLED
_STEPTIME = 19.2
_STEPSIZE = 0.01
_STEPMODE = C
_START = 61.5
_THETA = 30.75
_2THETA = 61.5
_KHI = -0.169602
_PHI = 0.000039
_X = 0.917012
_Y = -0.570996
_Z = 1.479004
_DETECTORSLIT = out
_AUX1 = 0
_AUX2 = -2.4
_DELAY = 120
_TIMESTARTED = 414.1419
_KV = 40
_MA = 40
_RANGE_WL = 1.5406
_3DPLANE = 0
_V4_PSD2THETA = 9999
_V4_PSDCHANNEL1 = 0
_V4_PSDAPERTURE = 2.057142
_V4_PSDTYPE = 5
_V4_PSDFIXED = 0
_V4_TEMPCONTROL = 0
_V4_TEMPSTAGE = 0
_V4_TEMPSENSOR = 0
_V4_TEMPERATURE = 323.5612
_V4_TEMPRATE = 0
_V4_TEMPDELAY = 0
_V4_TEMPRAMPFLAG = 0
_V4_COUNTERS_MASK = 1
_V4_DRIVES_MASK = 0
_V4_ENCODERS_MASK = 0
_2THETACOUNTS = 1
; 2THETA	Cnt2_D1
61.5	12
61.51	9.000000
61.52	9.000000
61.53	8.000000
61.54	12
61.55	9.000000
61.56	12
61.57	17
61.58	8.000000
61.59	5.000000
61.6	14
61.61	10
61.62	12
61.63	12
61.64	2.000000
61.65	14
61.66	11
61.67	7.000000
61.68	13
61.69	8.000000
61.7	9.000000
61.71	15
61.72	23
61.73	11
61.74	12
61.75	18
61.76	17
61.77	13
61.78	10
61.79	9.000000
61.8	13
61.81	14
61.82	13
61.83	19
61.84	19
61.85	20
61.86	14
61.87	19
61.88	15
61.89	13
61.9	17
61.91	25
61.92	26
61.93	35
61.94	32
61.95	22
61.96	37
61.97	30
61.98	33
61.99	26
62	36
62.01	36
62.02	37
62.03	43
62.04	41
62.05	38
62.06	28
62.07	33
62.08	34
62.09	49
62.1	48
62.11	46
62.12	52
62.13	45
62.14	46
62.15	51
62.16	45
62.17	62
62.18	55
62.19	63
62.2	73
62.21	64
62.22	68
62.23	77
62.24	66
62.25	85
62.26	68
62.27	88
62.28	82
62.29	76
62.3	89
62.31	87
62.32	114
62.33	119
62.34	122
62.35	90
62.36	114
62.37	164
62.38	137
62.39	143
62.4	183
62.41	206
62.42	184
62.43	219
62.44	239
62.45	232
62.46	274
62.47	312
62.48	281
62.49	340
62.5	408
62.51	428
62.52	464
62.53	517
62.54	550
62.55	555
62.56	693
62.57	741
62.58	822
62.59	973
62.6	1107
62.61	1306
62.62	1628
62.63	1976
62.64	2398
62.65	3140
62.66	3927
62.67	5512
62.68	8300
62.69	14331
62.7	29304
62.71	69171
62.72	139235
62.73	192912
62.74	195322
62.75	145815
62.76	81229
62.77	37715
62.78	17044
62.79	8846
62.8	5364
62.81	3672
62.82	2750
62.83	2122
62.84	1651
62.85	1406
62.86	1230
62.87	1063
62.88	1005
62.89	922
62.9	789
62.91	681
62.92	519
62.93	454
62.94	363
62.95	386
62.96	312
62.97	297
62.98	258
62.99	234
63	213
63.01	173
63.02	188
63.03	173
63.04	182
63.05	169
63.06	121
63.07	130
63.08	146
63.09	127
63.1	148
63.11	97
63.12	97
63.13	110
63.14	87
63.15	89
63.16	73
63.17	68
63.18	74
63.19	80
63.2	69
63.21	66
63.22	65
63.23	71
63.24	60
63.25	73
63.26	76
63.27	45
63.28	38
63.29	47
63.3	55
63.31	52
63.32	54
63.33	42
63.34	53
63.35	52
63.36	34
63.37	52
63.38	36
63.39	45
63.4	40
63.41	38
63.42	28
63.43	39
63.44	31
63.45	32
63.46	25
63.47	29
63.48	31
63.49	34
63.5	34
63.51	39
63.52	36
63.53	23
63.54	33
63.55	23
63.56	25
63.57	25
63.58	24
63.59	18
63.6	31
63.61	28
63.62	13
63.63	27
63.64	26
63.65	27
63.66	24
63.67	24
63.68	26
63.69	23
63.7	19
63.71	21
63.72	21
63.73	17
63.74	20
63.75	12
63.76	25
63.77	18
63.78	15
63.79	28
63.8	21
63.81	19
63.82	11
63.83	12
63.84	17
63.85	21
63.86	17
63.87	8.000000
63.88	16
63.89	21
63.9	16
63.91	21
63.92	16
63.93	15
63.94	20
63.95	20
63.96	10
63.97	28
63.98	19
63.99	17
64	13
64.01	13
64.02	22
64.03	17
64.04	17
64.05	20
64.06	15
64.07	17
64.08	20
64.09	14
64.1	21
64.11	27
64.12	23
64.13	30
64.14	18
64.15	22
64.16	22
64.17	27
64.18	24
64.19	11
64.2	23
64.21	20
64.22	24
64.23	34
64.24	22
64.25	32
64.26	26
64.27	24
64.28	22
64.29	24
64.3	28
64.31	21
64.32	31
64.33	38
64.34	32
64.35	28
64.36	40
64.37	45
64.38	31
64.39	25
64.4	38
64.41	35
64.42	43
64.43	40
64.44	41
64.45	42
64.46	42
64.47	56
64.48	48
64.49	58
64.5	46
64.51	58
64.52	66
64.53	81
64.54	67
64.55	97
64.56	81
64.57	95
64.58	120
64.59	135
64.6	129
64.61	156
64.62	166
64.63	194
64.64	203
64.65	236
64.66	246
64.67	266
64.68	319
64.69	324
64.7	364
64.71	371
64.72	417
64.73	396
64.74	448
64.75	492
64.76	538
64.77	589
64.78	623
64.79	696
64.8	687
64.81	790
64.82	870
64.83	965
64.84	1040
64.85	1100
64.86	1241
64.87	1392
64.88	1454
64.89	1505
64.9	1542
64.91	1684
64.92	1755
64.93	1797
64.94	1794
64.95	1806
64.96	1739
64.97	1672
64.98	1587
64.99	1572
65	1402
65.01	1300
65.02	1192
65.03	1120
65.04	921
65.05	844
65.06	765
65.07	636
65.08	553
65.09	488
65.1	450
65.11	385
65.12	296
65.13	296
65.14	262
65.15	224
65.16	219
65.17	214
65.18	187
65.19	153
65.2	140
65.21	118
65.22	127
65.23	103
65.24	101
65.25	94
65.26	76
65.27	87
65.28	68
65.29	59
65.3	53
65.31	66
65.32	42
65.33	64
65.34	53
65.35	50
65.36	54
65.37	39
65.38	50
65.39	50
65.4	64
65.41	51
65.42	52
65.43	54
65.44	43
65.45	51
65.46	34
65.47	50
65.48	55
65.49	44
65.5	44
65.51	42
65.52	50
65.53	47
65.54	57
65.55	57
65.56	42
65.57	50
65.58	46
65.59	46
65.6	34
65.61	29
65.62	39
65.63	40
65.64	27
65.65	35
65.66	40
65.67	31
65.68	26
65.69	32
65.7	42
65.71	30
65.72	35
65.73	44
65.74	55
65.75	63
65.76	70
65.77	105
65.78	107
65.79	123
65.8	158
65.81	170
65.82	202
65.83	205
65.84	254
65.85	268
65.86	268
65.87	278
65.88	281
65.89	287
65.9	302
65.91	249
65.92	234
65.93	133
65.94	87
65.95	62
65.96	46
65.97	30
65.98	24
65.99	22
66	21
66.01	20
66.02	11
66.03	9.000000
66.04	16
66.05	9.000000
66.06	12
66.07	9.000000
66.08	10
66.09	11
66.1	10
66.11	7.000000
66.12	12
66.13	10
66.14	6.000000
66.15	7.000000
66.16	5.000000
66.17	10
66.18	2.000000
66.19	11
66.2	6.000000
66.21	10
66.22	3.000000
66.23	6.000000
66.24	8.000000
66.25	9.000000
66.26	4.000000
66.27	4.000000
66.28	7.000000
66.29	5.000000
66.3	8.000000
66.31	4.000000
66.32	4.000000
66.33	9.000000
66.34	3.000000
66.35	6.000000
66.36	5.000000
66.37	4.000000
66.38	8.000000
66.39	10
66.4	8.000000
66.41	7.000000
66.42	7.000000
66.43	10
66.44	5.000000
66.45	9.000000
66.46	5.000000
66.47	9.000000
66.48	8.000000
66.49	5.000000
66.5	11

; Data for range 4
_DRIVE = COUPLED
_STEPTIME = 19.2
_STEPSIZE = 0.01
_STEPMODE = C
_START = 61.5
_THETA = 30.75
_2THETA = 61.5
_KHI = -0.169602
_PHI = 0.000039
_X = 0.917012
_Y = -0.570996
_Z = 1.479004
_DETECTORSLIT = out
_AUX1 = 0
_AUX2 = -2.4
_DELAY = 120
_TIMESTARTED = 621.4975
_KV = 40
_MA = 40
_RANGE_WL = 1.5406
_3DPLANE = 0
_V4_PSD2THETA = 9999
_V4_PSDCHANNEL1 = 0
_V4_PSDAPERTURE = 2.057142
_V4_PSDTYPE = 5
_V4_PSDFIXED = 0
_V4_TEMPCONTROL = 0
_V4_TEMPSTAGE = 0
_V4_TEMPSENSOR = 0
_V4_TEMPERATURE = 325.4115
_V4_TEMPRATE = 0
_V4_TEMPDELAY = 0
_V4_TEMPRAMPFLAG = 0
_V4_COUNTERS_MASK = 1
_V4_DRIVES_MASK = 0
_V4_ENCODERS_MASK = 0
_2THETACOUNTS = 1
; 2THETA	Cnt2_D1
61.5	9.000000
61.51	12
61.52	10
61.53	10
61.54	14
61.55	12
61.56	7.000000
61.57	9.000000
61.58	9.000000
61.59	17
61.6	7.000000
61.61	14
61.62	5.000000
61.63	13
61.64	12
61.65	13
61.66	10
61.67	10
61.68	8.000000
61.69	14
61.7	10
61.71	9.000000
61.72	16
61.73	11
61.74	17
61.75	9.000000
61.76	13
61.77	13
61.78	19
61.79	13
61.8	15
61.81	7.000000
61.82	15
61.83	20
61.84	19
61.85	15
61.86	15
61.87	21
61.88	21
61.89	19
61.9	24
61.91	17
61.92	17
61.93	26
61.94	31
61.95	22
61.96	36
61.97	42
61.98	36
61.99	23
62	38
62.01	32
62.02	45
62.03	34
62.04	40
62.05	33
62.06	33
62.07	43
62.08	53
62.09	35
62.1	43
62.11	49
62.12	34
62.13	43
62.14	50
62.15	43
62.16	57
62.17	41
62.18	58
62.19	52
62.2	55
62.21	63
62.22	51
62.23	73
62.24	75
62.25	72
62.26	83
62.27	84
62.28	91
62.29	87
62.3	104
62.31	106
62.32	107
62.33	110
62.34	121
62.35	125
62.36	133
62.37	143
62.38	155
62.39	155
62.4	169
62.41	180
62.42	162
62.43	225
62.44	234
62.45	208
62.46	275
62.47	277
62.48	313
62.49	354
62.5	414
62.51	423
62.52	426
62.53	500
62.54	568
62.55	606
62.56	720
62.57	814
62.58	901
62.59	1001
62.6	1161
62.61	1400
62.62	1627
62.63	2087
62.64	2577
62.65	3240
62.66	4260
62.67	5889
62.68	9291
62.69	16719
62.7	36725
62.71	85359
62.72	157036
62.73	197210
62.74	185578
62.75	126472
62.76	66516
62.77	30286
62.78	13958
62.79	7481
62.8	4672
62.81	3451
62.82	2505
62.83	2028
62.84	1694
62.85	1325
62.86	1153
62.87	1050
62.88	1005
62.89	852
62.9	704
62.91	684
62.92	493
62.93	467
62.94	424
62.95	337
62.96	307
62.97	278
62.98	217
62.99	226
63	209
63.01	191
63.02	196
63.03	158
63.04	159
63.05	151
63.06	139
63.07	120
63.08	134
63.09	115
63.1	107
63.11	109
63.12	112
63.13	105
63.14	93
63.15	86
63.16	91
63.17	86
63.18	89
63.19	75
63.2	87
63.21	64
63.22	55
63.23	63
63.24	74
63.25	49
63.26	64
63.27	52
63.28	57
63.29	55
63.3	51
63.31	56
63.32	43
63.33	56
63.34	45
63.35	46
63.36	34
63.37	31
63.38	36
63.39	31
63.4	29
63.41	27
63.42	32
63.43	34
63.44	29
63.45	34
63.46	27
63.47	34
63.48	33
63.49	33
63.5	24
63.51	30
63.52	22
63.53	36
63.54	29
63.55	33
63.56	17
63.57	29
63.58	27
63.59	21
63.6	23
63.61	21
63.62	19
63.63	9.000000
63.64	18
63.65	28
63.66	25
63.67	26
63.68	23
63.69	13
63.7	17
63.71	28
63.72	23
63.73	20
63.74	26
63.75	16
63.76	20
63.77	16
63.78	12
63.79	21
63.8	6.000000
63.81	14
63.82	20
63.83	14
63.84	16
63.85	16
63.86	13
63.87	9.000000
63.88	17
63.89	19
63.9	20
63.91	18
63.92	20
63.93	22
63.94	15
63.95	26
63.96	24
63.97	16
63.98	11
63.99	12
64	14
64.01	14
64.02	15
64.03	20
64.04	22
64.05	24
64.06	23
64.07	17
64.08	17
64.09	16
64.1	19
64.11	19
64.12	29
64.13	21
64.14	26
64.15	19
64.16	26
64.17	16
64.18	19
64.19	21
64.2	21
64.21	18
64.22	24
64.23	23
64.24	23
64.25	31
64.26	28
64.27	25
64.28	19
64.29	22
64.3	27
64.31	31
64.32	30
64.33	36
64.34	30
64.35	22
64.36	33
64.37	26
64.38	31
64.39	40
64.4	40
64.41	40
64.42	43
64.43	49
64.44	52
64.45	43
64.46	44
64.47	57
64.48	55
64.49	60
64.5	68
64.51	54
64.52	84
64.53	74
64.54	73
64.55	92
64.56	104
64.57	101
64.58	110
64.59	134
64.6	151
64.61	164
64.62	191
64.63	189
64.64	230
64.65	219
64.66	255
64.67	308
64.68	322
64.69	333
64.7	339
64.71	373
64.72	426
64.73	423
64.74	482
64.75	492
64.76	569
64.77	603
64.78	645
64.79	720
64.8	795
64.81	839
64.82	935
64.83	1071
64.84	1088
64.85	1236
64.86	1287
64.87	1347
64.88	1470
64.89	1527
64.9	1668
64.91	1699
64.92	1656
64.93	1719
64.94	1791
64.95	1692
64.96	1609
64.97	1592
64.98	1488
64.99	1340
65	1262
65.01	1148
65.02	1040
65.03	930
65.04	781
65.05	662
65.06	608
65.07	545
65.08	450
65.09	408
65.1	364
65.11	344
65.12	327
65.13	252
65.14	212
65.15	176
65.16	194
65.17	144
65.18	166
65.19	137
65.2	146
65.21	102
65.22	112
65.23	115
65.24	99
65.25	81
65.26	87
65.27	80
65.28	76
65.29	69
65.3	76
65.31	57
65.32	84
65.33	57
65.34	61
65.35	61
65.36	58
65.37	59
65.38	73
65.39	68
65.4	56
65.41	63
65.42	65
65.43	83
65.44	75
65.45	87
65.46	89
65.47	86
65.48	104
65.49	88
65.5	91
65.51	113
65.52	112
65.53	101
65.54	108
65.55	89
65.56	88
65.57	100
65.58	91
65.59	71
65.6	84
65.61	73
65.62	47
65.63	62
65.64	63
65.65	46
65.66	43
65.67	60
65.68	31
65.69	30
65.7	47
65.71	29
65.72	45
65.73	44
65.74	37
65.75	56
65.76	77
65.77	91
65.78	127
65.79	119
65.8	154
65.81	171
65.82	210
65.83	205
65.84	255
65.85	293
65.86	305
65.87	294
65.88	300
65.89	303
65.9	306
65.91	224
65.92	203
65.93	138
65.94	92
65.95	64
65.96	36
65.97	31
65.98	30
65.99	14
66	16
66.01	14
66.02	14
66.03	8.000000
66.04	7.000000
66.05	8.000000
66.06	7.000000
66.07	11
66.08	7.000000
66.09	6.000000
66.1	6.000000
66.11	14
66.12	16
66.13	9.000000
66.14	8.000000
66.15	8.000000
66.16	7.000000
66.17	7.000000
66.18	7.000000
66.19	5.000000
66.2	6.000000
66.21	12
66.22	9.000000
66.23	11
66.24	7.000000
66.25	4.000000
66.26	6.000000
66.27	10
66.28	12
66.29	11
66.3	10
66.31	8.000000
66.32	6.000000
66.33	11
66.34	6.000000
66.35	8.000000
66.36	2.000000
66.37	9.000000
66.38	7.000000
66.39	9.000000
66.4	6.000000
66.41	5.000000
66.42	10
66.43	4.000000
66.44	8.000000
66.45	5.000000
66.46	5.000000
66.47	12
66.48	7.000000
66.49	8.000000
66.5	3.000000

; Data for range 5
_DRIVE = COUPLED
_STEPTIME = 19.2
_STEPSIZE = 0.01
_STEPMODE = C
_START = 61.5
_THETA = 30.75
_2THETA = 61.5
_KHI = -0.169602
_PHI = 0.000039
_X = 0.917012
_Y = -0.570996
_Z = 1.479004
_DETECTORSLIT = out
_AUX1 = 0
_AUX2 = -2.4
_DELAY = 120
_TIMESTARTED = 823.3306
_KV = 40
_MA = 40
_RANGE_WL = 1.5406
_3DPLANE = 0
_V4_PSD2THETA = 9999
_V4_PSDCHANNEL1 = 0
_V4_PSDAPERTURE = 2.057142
_V4_PSDTYPE = 5
_V4_PSDFIXED = 0
_V4_TEMPCONTROL = 0
_V4_TEMPSTAGE = 0
_V4_TEMPSENSOR = 0
_V4_TEMPERATURE = 327.4833
_V4_TEMPRATE = 0
_V4_TEMPDELAY = 0
_V4_TEMPRAMPFLAG = 0
_V4_COUNTERS_MASK = 1
_V4_DRIVES_MASK = 0
_V4_ENCODERS_MASK = 0
_2THETACOUNTS = 1
; 2THETA	Cnt2_D1
61.5	9.000000
61.51	7.000000
61.52	9.000000
61.53	14
61.54	10
61.55	18
61.56	15
61.57	7.000000
61.58	8.000000
61.59	10
61.6	11
61.61	7.000000
61.62	14
61.63	8.000000
61.64	7.000000
61.65	13
61.66	12
61.67	10
61.68	21
61.69	7.000000
61.7	15
61.71	9.000000
61.72	13
61.73	13
61.74	9.000000
61.75	12
61.76	12
61.77	13
61.78	18
61.79	13
61.8	19
61.81	22
61.82	14
61.83	14
61.84	22
61.85	20
61.86	13
61.87	19
61.88	16
61.89	22
61.9	18
61.91	16
61.92	26
61.93	21
61.94	21
61.95	29
61.96	30
61.97	34
61.98	31
61.99	37
62	26
62.01	31
62.02	33
62.03	46
62.04	33
62.05	39
62.06	41
62.07	30
62.08	45
62.09	43
62.1	43
62.11	45
62.12	47
62.13	43
62.14	40
62.15	37
62.16	52
62.17	58
62.18	56
62.19	57
62.2	59
62.21	44
62.22	57
62.23	52
62.24	63
62.25	86
62.26	92
62.27	76
62.28	84
62.29	111
62.3	87
62.31	108
62.32	125
62.33	103
62.34	114
62.35	102
62.36	141
62.37	129
62.38	135
62.39	152
62.4	183
62.41	199
62.42	169
62.43	223
62.44	226
62.45	259
62.46	248
62.47	296
62.48	312
62.49	327
62.5	330
62.51	426
62.52	435
62.53	529
62.54	555
62.55	594
62.56	693
62.57	823
62.58	853
62.59	965
62.6	1234
62.61	1391
62.62	1635
62.63	2002
62.64	2452
62.65	3115
62.66	4184
62.67	5755
62.68	8971
62.69	16746
62.7	37017
62.71	86515
62.72	154897
62.73	191950
62.74	174847
62.75	115471
62.76	59032
62.77	26928
62.78	12723
62.79	6944
62.8	4518
62.81	3165
62.82	2366
62.83	1826
62.84	1541
62.85	1299
62.86	1138
62.87	1021
62.88	926
62.89	821
62.9	758
62.91	565
62.92	478
62.93	399
62.94	342
62.95	329
62.96	285
62.97	289
62.98	225
62.99	233
63	187
63.01	182
63.02	184
63.03	192
63.04	168
63.05	149
63.06	153
63.07	115
63.08	138
63.09	111
63.1	138
63.11	102
63.12	97
63.13	84
63.14	87
63.15	92
63.16	86
63.17	82
63.18	73
63.19	75
63.2	81
63.21	65
63.22	53
63.23	51
63.24	61
63.25	68
63.26	46
63.27	61
63.28	38
63.29	61
63.3	46
63.31	44
63.32	31
63.33	49
63.34	58
63.35	39
63.36	45
63.37	41
63.38	49
63.39	30
63.4	38
63.41	44
63.42	39
63.43	46
63.44	25
63.45	18
63.46	26
63.47	33
63.48	16
63.49	30
63.5	25
63.51	28
63.52	21
63.53	28
63.54	32
63.55	23
63.56	27
63.57	16
63.58	25
63.59	12
63.6	24
63.61	26
63.62	29
63.63	19
63.64	28
63.65	13
63.66	18
63.67	16
63.68	19
63.69	16
63.7	18
63.71	23
63.72	16
63.73	15
63.74	16
63.75	27
63.76	17
63.77	20
63.78	12
63.79	13
63.8	25
63.81	17
63.82	17
63.83	19
63.84	13
63.85	20
63.86	18
63.87	13
63.88	15
63.89	18
63.9	17
63.91	17
63.92	11
63.93	15
63.94	19
63.95	22
63.96	22
63.97	18
63.98	19
63.99	16
64	17
64.01	24
64.02	13
64.03	21
64.04	16
64.05	23
64.06	27
64.07	20
64.08	17
64.09	19
64.1	20
64.11	23
64.12	28
64.13	34
64.14	19
64.15	26
64.16	21
64.17	15
64.18	21
64.19	27
64.2	21
64.21	25
64.22	22
64.23	17
64.24	29
64.25	35
64.26	27
64.27	18
64.28	39
64.29	35
64.3	31
64.31	30
64.32	29
64.33	32
64.34	26
64.35	33
64.36	39
64.37	40
64.38	43
64.39	34
64.4	35
64.41	50
64.42	39
64.43	49
64.44	41
64.45	44
64.46	44
64.47	54
64.48	61
64.49	59
64.5	77
64.51	57
64.52	79
64.53	78
64.54	95
64.55	86
64.56	102
64.57	120
64.58	112
64.59	137
64.6	163
64.61	173
64.62	196
64.63	230
64.64	252
64.65	250
64.66	266
64.67	341
64.68	333
64.69	361
64.7	390
64.71	452
64.72	442
64.73	455
64.74	537
64.75	570
64.76	604
64.77	663
64.78	694
64.79	794
64.8	913
64.81	962
64.82	1044
64.83	1105
64.84	1201
64.85	1316
64.86	1397
64.87	1449
64.88	1439
64.89	1545
64.9	1585
64.91	1543
64.92	1508
64.93	1383
64.94	1399
64.95	1332
64.96	1150
64.97	1141
64.98	1008
64.99	876
65	803
65.01	719
65.02	626
65.03	527
65.04	474
65.05	418
65.06	357
65.07	334
65.08	318
65.09	261
65.1	249
65.11	226
65.12	204
65.13	199
65.14	167
65.15	165
65.16	151
65.17	130
65.18	119
65.19	110
65.2	111
65.21	102
65.22	102
65.23	108
65.24	108
65.25	107
65.26	98
65.27	87
65.28	98
65.29	101
65.3	99
65.31	100
65.32	93
65.33	95
65.34	117
65.35	114
65.36	119
65.37	122
65.38	128
65.39	171
65.4	179
65.41	194
65.42	198
65.43	275
65.44	282
65.45	282
65.46	339
65.47	333
65.48	356
65.49	372
65.5	370
65.51	358
65.52	358
65.53	357
65.54	334
65.55	306
65.56	267
65.57	234
65.58	227
65.59	183
65.6	167
65.61	142
65.62	126
65.63	107
65.64	88
65.65	91
65.66	62
65.67	65
65.68	70
65.69	63
65.7	56
65.71	63
65.72	75
65.73	72
65.74	66
65.75	79
65.76	102
65.77	91
65.78	110
65.79	149
65.8	178
65.81	184
65.82	222
65.83	253
65.84	258
65.85	273
65.86	288
65.87	317
65.88	294
65.89	302
65.9	294
65.91	251
65.92	208
65.93	161
65.94	109
65.95	65
65.96	41
65.97	34
65.98	19
65.99	22
66	14
66.01	14
66.02	9.000000
66.03	8.000000
66.04	14
66.05	7.000000
66.06	14
66.07	10
66.08	2.000000
66.09	12
66.1	8.000000
66.11	4.000000
66.12	13
66.13	7.000000
66.14	6.000000
66.15	12
66.16	7.000000
66.17	4.000000
66.18	10
66.19	12
66.2	6.000000
66.21	11
66.22	6.000000
66.23	3.000000
66.24	8.000000
66.25	11
66.26	13
66.27	5.000000
66.28	14
66.29	8.000000
66.3	8.000000
66.31	6.000000
66.32	6.000000
66.33	7.000000
66.34	4.000000
66.35	9.000000
66.36	7.000000
66.37	9.000000
66.38	11
66.39	5.000000
66.4	3.000000
66.41	6.000000
66.42	10
66.43	5.000000
66.44	8.000000
66.45	4.000000
66.46	8.000000
66.47	13
66.48	10
66.49	6.000000
66.5	9.000000

; Data for range 6
_DRIVE = COUPLED
_STEPTIME = 19.2
_STEPSIZE = 0.01
_STEPMODE = C
_START = 61.5
_THETA = 30.75
_2THETA = 61.5
_KHI = -0.169602
_PHI = 0.000039
_X = 0.917012
_Y = -0.570996
_Z = 1.479004
_DETECTORSLIT = out
_AUX1 = 0
_AUX2 = -2.4
_DELAY = 120
_TIMESTARTED = 1026.427
_KV = 40
_MA = 40
_RANGE_WL = 1.5406
_3DPLANE = 0
_V4_PSD2THETA = 9999
_V4_PSDCHANNEL1 = 0
_V4_PSDAPERTURE = 2.057142
_V4_PSDTYPE = 5
_V4_PSDFIXED = 0
_V4_TEMPCONTROL = 0
_V4_TEMPSTAGE = 0
_V4_TEMPSENSOR = 0
_V4_TEMPERATURE = 329.4294
_V4_TEMPRATE = 0
_V4_TEMPDELAY = 0
_V4_TEMPRAMPFLAG = 0
_V4_COUNTERS_MASK = 1
_V4_DRIVES_MASK = 0
_V4_ENCODERS_MASK = 0
_2THETACOUNTS = 1
; 2THETA	Cnt2_D1
61.5	6.000000
61.51	6.000000
61.52	12
61.53	10
61.54	9.000000
61.55	10
61.56	7.000000
61.57	8.000000
61.58	17
61.59	14
61.6	17
61.61	9.000000
61.62	9.000000
61.63	5.000000
61.64	9.000000
61.65	8.000000
61.66	13
61.67	17
61.68	11
61.69	15
61.7	12
61.71	13
61.72	24
61.73	11
61.74	14
61.75	22
61.76	17
61.77	17
61.78	12
61.79	15
61.8	13
61.81	19
61.82	17
61.83	23
61.84	17
61.85	18
61.86	24
61.87	29
61.88	19
61.89	22
61.9	20
61.91	24
61.92	19
61.93	30
61.94	15
61.95	30
61.96	29
61.97	30
61.98	36
61.99	30
62	24
62.01	34
62.02	27
62.03	33
62.04	40
62.05	33
62.06	36
62.07	31
62.08	37
62.09	40
62.1	49
62.11	54
62.12	43
62.13	41
62.14	45
62.15	42
62.16	48
62.17	53
62.18	59
62.19	65
62.2	69
62.21	64
62.22	60
62.23	70
62.24	49
62.25	69
62.26	89
62.27	82
62.28	79
62.29	80
62.3	100
62.31	87
62.32	112
62.33	104
62.34	120
62.35	124
62.36	132
62.37	121
62.38	125
62.39	163
62.4	176
62.41	185
62.42	205
62.43	204
62.44	213
62.45	222
62.46	251
62.47	300
62.48	300
62.49	323
62.5	406
62.51	370
62.52	442
62.53	480
62.54	530
62.55	592
62.56	707
62.57	753
62.58	905
62.59	976
62.6	1164
62.61	1333
62.62	1631
62.63	1982
62.64	2404
62.65	3206
62.66	4227
62.67	5917
62.68	8992
62.69	17015
62.7	37912
62.71	89083
62.72	156777
62.73	189321
62.74	170075
62.75	109773
62.76	55956
62.77	25669
62.78	11880
62.79	6644
62.8	4446
62.81	3185
62.82	2382
62.83	1781
62.84	1517
62.85	1278
62.86	1023
62.87	994
62.88	920
62.89	720
62.9	681
62.91	557
62.92	484
62.93	424
62.94	369
62.95	317
62.96	291
62.97	254
62.98	235
62.99	231
63	188
63.01	212
63.02	184
63.03	163
63.04	158
63.05	119
63.06	135
63.07	113
63.08	121
63.09	122
63.1	115
63.11	118
63.12	87
63.13	88
63.14	90
63.15	68
63.16	88
63.17	69
63.18	83
63.19	72
63.2	73
63.21	63
63.22	60
63.23	55
63.24	65
63.25	76
63.26	54
63.27	63
63.28	60
63.29	52
63.3	50
63.31	37
63.32	36
63.33	35
63.34	47
63.35	38
63.36	39
63.37	44
63.38	39
63.39	37
63.4	31
63.41	27
63.42	33
63.43	30
63.44	34
63.45	30
63.46	33
63.47	36
63.48	23
63.49	28
63.5	32
63.51	19
63.52	31
63.53	27
63.54	33
63.55	21
63.56	24
63.57	29
63.58	18
63.59	31
63.6	23
63.61	28
63.62	26
63.63	24
63.64	23
63.65	19
63.66	20
63.67	21
63.68	23
63.69	20
63.7	13
63.71	18
63.72	21
63.73	18
63.74	7.000000
63.75	21
63.76	23
63.77	11
63.78	20
63.79	16
63.8	17
63.81	16
63.82	9.000000
63.83	26
63.84	18
63.85	22
63.86	23
63.87	12
63.88	17
63.89	10
63.9	16
63.91	16
63.92	15
63.93	15
63.94	26
63.95	19
63.96	15
63.97	17
63.98	18
63.99	14
64	12
64.01	18
64.02	17
64.03	14
64.04	15
64.05	17
64.06	22
64.07	24
64.08	22
64.09	10
64.1	22
64.11	20
64.12	17
64.13	23
64.14	24
64.15	23
64.16	20
64.17	22
64.18	24
64.19	17
64.2	20
64.21	21
64.22	28
64.23	28
64.24	13
64.25	16
64.26	27
64.27	33
64.28	18
64.29	36
64.3	29
64.31	25
64.32	34
64.33	24
64.34	32
64.35	26
64.36	28
64.37	37
64.38	32
64.39	44
64.4	36
64.41	44
64.42	33
64.43	56
64.44	45
64.45	64
64.46	49
64.47	66
64.48	66
64.49	72
64.5	102
64.51	87
64.52	82
64.53	106
64.54	91
64.55	129
64.56	120
64.57	133
64.58	169
64.59	176
64.6	182
64.61	204
64.62	220
64.63	263
64.64	282
64.65	287
64.66	316
64.67	341
64.68	380
64.69	418
64.7	412
64.71	463
64.72	514
64.73	497
64.74	537
64.75	674
64.76	693
64.77	737
64.78	797
64.79	907
64.8	970
64.81	1045
64.82	1092
64.83	1197
64.84	1263
64.85	1322
64.86	1372
64.87	1335
64.88	1388
64.89	1368
64.9	1361
64.91	1325
64.92	1251
64.93	1151
64.94	1011
64.95	919
64.96	806
64.97	748
64.98	625
64.99	595
65	514
65.01	448
65.02	402
65.03	396
65.04	336
65.05	293
65.06	272
65.07	243
65.08	237
65.09	205
65.1	172
65.11	201
65.12	162
65.13	153
65.14	129
65.15	128
65.16	128
65.17	113
65.18	118
65.19	103
65.2	113
65.21	105
65.22	115
65.23	108
65.24	96
65.25	120
65.26	107
65.27	123
65.28	133
65.29	128
65.3	129
65.31	150
65.32	157
65.33	174
65.34	231
65.35	175
65.36	264
65.37	266
65.38	289
65.39	348
65.4	368
65.41	429
65.42	484
65.43	549
65.44	605
65.45	620
65.46	709
65.47	718
65.48	741
65.49	696
65.5	690
65.51	648
65.52	584
65.53	543
65.54	460
65.55	392
65.56	368
65.57	323
65.58	255
65.59	217
65.6	191
65.61	157
65.62	153
65.63	129
65.64	115
65.65	97
65.66	91
65.67	88
65.68	72
65.69	68
65.7	90
65.71	82
65.72	84
65.73	80
65.74	74
65.75	93
65.76	114
65.77	104
65.78	126
65.79	146
65.8	174
65.81	165
65.82	195
65.83	239
65.84	250
65.85	305
65.86	310
65.87	324
65.88	350
65.89	317
65.9	279
65.91	266
65.92	175
65.93	126
65.94	92
65.95	65
65.96	42
65.97	27
65.98	23
65.99	15
66	15
66.01	19
66.02	10
66.03	18
66.04	15
66.05	12
66.06	9.000000
66.07	16
66.08	16
66.09	8.000000
66.1	9.000000
66.11	11
66.12	10
66.13	6.000000
66.14	8.000000
66.15	8.000000
66.16	15
66.17	11
66.18	12
66.19	9.000000
66.2	7.000000
66.21	11
66.22	6.000000
66.23	7.000000
66.24	5.000000
66.25	3.000000
66.26	11
66.27	9.000000
66.28	10
66.29	7.000000
66.3	7.000000
66.31	6.000000
66.32	5.000000
66.33	4.000000
66.34	6.000000
66.35	6.000000
66.36	6.000000
66.37	5.000000
66.38	8.000000
66.39	10
66.4	13
66.41	6.000000
66.42	12
66.43	11
66.44	6.000000
66.45	7.000000
66.46	7.000000
66.47	9.000000
66.48	6.000000
66.49	12
66.5	9.000000

; Data for range 7
_DRIVE = COUPLED
_STEPTIME = 19.2
_STEPSIZE = 0.01
_STEPMODE = C
_START = 61.5
_THETA = 30.75
_2THETA = 61.5
_KHI = -0.169602
_PHI = 0.000039
_X = 0.917012
_Y = -0.570996
_Z = 1.479004
_DETECTORSLIT = out
_AUX1 = 0
_AUX2 = -2.4
_DELAY = 120
_TIMESTARTED = 1235.14
_KV = 40
_MA = 40
_RANGE_WL = 1.5406
_3DPLANE = 0
_V4_PSD2THETA = 9999
_V4_PSDCHANNEL1 = 0
_V4_PSDAPERTURE = 2.057142
_V4_PSDTYPE = 5
_V4_PSDFIXED = 0
_V4_TEMPCONTROL = 0
_V4_TEMPSTAGE = 0
_V4_TEMPSENSOR = 0
_V4_TEMPERATURE = 331.2638
_V4_TEMPRATE = 0
_V4_TEMPDELAY = 0
_V4_TEMPRAMPFLAG = 0
_V4_COUNTERS_MASK = 1
_V4_DRIVES_MASK = 0
_V4_ENCODERS_MASK = 0
_2THETACOUNTS = 1
; 2THETA	Cnt2_D1
61.5	8.000000
61.51	15
61.52	9.000000
61.53	7.000000
61.54	16
61.55	7.000000
61.56	6.000000
61.57	8.000000
61.58	11
61.59	7.000000
61.6	9.000000
61.61	12
61.62	10
61.63	18
61.64	16
61.65	11
61.66	8.000000
61.67	8.000000
61.68	9.000000
61.69	10
61.7	9.000000
61.71	9.000000
61.72	13
61.73	10
61.74	10
61.75	10
61.76	11
61.77	11
61.78	15
61.79	22
61.8	19
61.81	16
61.82	11
61.83	12
61.84	18
61.85	22
61.86	22
61.87	17
61.88	22
61.89	18
61.9	21
61.91	20
61.92	23
61.93	21
61.94	28
61.95	23
61.96	23
61.97	25
61.98	20
61.99	26
62	40
62.01	37
62.02	26
62.03	43
62.04	29
62.05	26
62.06	39
62.07	37
62.08	34
62.09	39
62.1	35
62.11	38
62.12	54
62.13	44
62.14	59
62.15	53
62.16	71
62.17	61
62.18	61
62.19	67
62.2	53
62.21	51
62.22	45
62.23	62
62.24	45
62.25	67
62.26	70
62.27	82
62.28	89
62.29	71
62.3	83
62.31	84
62.32	100
62.33	115
62.34	101
62.35	123
62.36	143
62.37	105
62.38	131
62.39	149
62.4	173
62.41	181
62.42	168
62.43	217
62.44	206
62.45	257
62.46	268
62.47	320
62.48	294
62.49	317
62.5	346
62.51	401
62.52	426
62.53	458
62.54	540
62.55	586
62.56	705
62.57	748
62.58	849
62.59	946
62.6	1196
62.61	1347
62.62	1582
62.63	1969
62.64	2438
62.65	3064
62.66	4170
62.67	5772
62.68	9151
62.69	17540
62.7	40063
62.71	93539
62.72	159299
62.73	186612
62.74	161984
62.75	100901
62.76	49722
62.77	22585
62.78	10659
62.79	6185
62.8	3982
62.81	2951
62.82	2236
62.83	1818
62.84	1510
62.85	1266
62.86	1048
62.87	978
62.88	896
62.89	798
62.9	657
62.91	513
62.92	505
62.93	389
62.94	342
62.95	312
62.96	288
62.97	275
62.98	237
62.99	239
63	212
63.01	210
63.02	152
63.03	178
63.04	143
63.05	161
63.06	118
63.07	132
63.08	122
63.09	98
63.1	112
63.11	95
63.12	90
63.13	79
63.14	78
63.15	89
63.16	98
63.17	63
63.18	87
63.19	79
63.2	60
63.21	68
63.22	71
63.23	53
63.24	64
63.25	57
63.26	64
63.27	40
63.28	49
63.29	59
63.3	55
63.31	37
63.32	49
63.33	46
63.34	41
63.35	46
63.36	41
63.37	27
63.38	39
63.39	29
63.4	25
63.41	30
63.42	23
63.43	32
63.44	27
63.45	22
63.46	29
63.47	25
63.48	30
63.49	24
63.5	26
63.51	25
63.52	22
63.53	17
63.54	20
63.55	13
63.56	19
63.57	27
63.58	21
63.59	20
63.6	28
63.61	18
63.62	24
63.63	21
63.64	27
63.65	22
63.66	15
63.67	24
63.68	21
63.69	17
63.7	16
63.71	23
63.72	12
63.73	21
63.74	23
63.75	17
63.76	23
63.77	12
63.78	24
63.79	19
63.8	14
63.81	18
63.82	23
63.83	17
63.84	21
63.85	14
63.86	8.000000
63.87	18
63.88	15
63.89	18
63.9	15
63.91	19
63.92	13
63.93	15
63.94	16
63.95	24
63.96	19
63.97	16
63.98	19
63.99	21
64	11
64.01	15
64.02	18
64.03	15
64.04	18
64.05	16
64.06	19
64.07	21
64.08	22
64.09	19
64.1	20
64.11	22
64.12	15
64.13	16
64.14	20
64.15	23
64.16	23
64.17	22
64.18	15
64.19	20
64.2	20
64.21	17
64.22	24
64.23	26
64.24	27
64.25	27
64.26	28
64.27	21
64.28	37
64.29	24
64.3	27
64.31	32
64.32	38
64.33	48
64.34	33
64.35	40
64.36	27
64.37	33
64.38	27
64.39	42
64.4	36
64.41	37
64.42	56
64.43	48
64.44	47
64.45	60
64.46	76
64.47	75
64.48	79
64.49	90
64.5	86
64.51	87
64.52	98
64.53	124
64.54	94
64.55	139
64.56	136
64.57	181
64.58	157
64.59	210
64.6	211
64.61	252
64.62	243
64.63	290
64.64	282
64.65	321
64.66	342
64.67	406
64.68	400
64.69	448
64.7	491
64.71	512
64.72	532
64.73	580
64.74	599
64.75	690
64.76	782
64.77	830
64.78	826
64.79	916
64.8	963
64.81	1046
64.82	1082
64.83	1082
64.84	1124
64.85	1034
64.86	1048
64.87	998
64.88	988
64.89	890
64.9	855
64.91	759
64.92	727
64.93	648
64.94	528
64.95	500
64.96	442
64.97	417
64.98	375
64.99	339
65	311
65.01	255
65.02	221
65.03	224
65.04	212
65.05	189
65.06	184
65.07	154
65.08	157
65.09	133
65.1	151
65.11	141
65.12	138
65.13	110
65.14	125
65.15	147
65.16	120
65.17	126
65.18	132
65.19	128
65.2	140
65.21	141
65.22	129
65.23	122
65.24	127
65.25	167
65.26	138
65.27	166
65.28	176
65.29	211
65.3	211
65.31	207
65.32	269
65.33	289
65.34	321
65.35	380
65.36	422
65.37	516
65.38	512
65.39	603
65.4	750
65.41	748
65.42	783
65.43	904
65.44	941
65.45	1008
65.46	1055
65.47	1019
65.48	961
65.49	918
65.5	875
65.51	764
65.52	663
65.53	567
65.54	503
65.55	410
65.56	352
65.57	331
65.58	280
65.59	234
65.6	176
65.61	172
65.62	145
65.63	128
65.64	114
65.65	92
65.66	102
65.67	95
65.68	89
65.69	85
65.7	80
65.71	80
65.72	69
65.73	87
65.74	87
65.75	76
65.76	82
65.77	102
65.78	139
65.79	148
65.8	171
65.81	204
65.82	216
65.83	251
65.84	279
65.85	268
65.86	294
65.87	305
65.88	310
65.89	316
65.9	276
65.91	255
65.92	176
65.93	154
65.94	88
65.95	63
65.96	49
65.97	41
65.98	29
65.99	21
66	24
66.01	16
66.02	14
66.03	15
66.04	17
66.05	11
66.06	9.000000
66.07	11
66.08	12
66.09	7.000000
66.1	11
66.11	8.000000
66.12	8.000000
66.13	10
66.14	15
66.15	4.000000
66.16	7.000000
66.17	9.000000
66.18	5.000000
66.19	6.000000
66.2	3.000000
66.21	8.000000
66.22	7.000000
66.23	8.000000
66.24	5.000000
66.25	8.000000
66.26	6.000000
66.27	10
66.28	12
66.29	9.000000
66.3	6.000000
66.31	11
66.32	7.000000
66.33	5.000000
66.34	8.000000
[...]
63.08	120
63.09	110
63.1	110
63.11	106
63.12	87
63.13	104
63.14	87
63.15	79
63.16	87
63.17	74
63.18	83
63.19	67
63.2	73
63.21	67
63.22	70
63.23	68
63.24	41
63.25	44
63.26	59
63.27	49
63.28	55
63.29	56
63.3	49
63.31	39
63.32	38
63.33	41
63.34	42
63.35	44
63.36	42
63.37	47
63.38	48
63.39	38
63.4	33
63.41	40
63.42	29
63.43	29
63.44	27
63.45	35
63.46	30
63.47	23
63.48	31
63.49	24
63.5	27
63.51	26
63.52	30
63.53	33
63.54	17
63.55	31
63.56	30
63.57	18
63.58	25
63.59	25
63.6	23
63.61	30
63.62	32
63.63	32
63.64	25
63.65	27
63.66	24
63.67	15
63.68	18
63.69	19
63.7	13
63.71	20
63.72	25
63.73	14
63.74	11
63.75	19
63.76	8.000000
63.77	16
63.78	17
63.79	17
63.8	13
63.81	18
63.82	14
63.83	15
63.84	10
63.85	14
63.86	17
63.87	20
63.88	11
63.89	18
63.9	23
63.91	18
63.92	10
63.93	16
63.94	23
63.95	15
63.96	13
63.97	16
63.98	20
63.99	16
64	20
64.01	16
64.02	16
64.03	18
64.04	26
64.05	24
64.06	22
64.07	12
64.08	22
64.09	15
64.1	17
64.11	23
64.12	15
64.13	24
64.14	17
64.15	19
64.16	26
64.17	16
64.18	16
64.19	21
64.2	14
64.21	22
64.22	20
64.23	17
64.24	14
64.25	17
64.26	21
64.27	13
64.28	13
64.29	25
64.3	23
64.31	16
64.32	16
64.33	18
64.34	16
64.35	13
64.36	19
64.37	15
64.38	17
64.39	20
64.4	12
64.41	14
64.42	13
64.43	24
64.44	16
64.45	18
64.46	19
64.47	19
64.48	17
64.49	21
64.5	17
64.51	18
64.52	19
64.53	18
64.54	23
64.55	25
64.56	15
64.57	23
64.58	18
64.59	21
64.6	25
64.61	17
64.62	25
64.63	18
64.64	27
64.65	16
64.66	26
64.67	24
64.68	23
64.69	24
64.7	25
64.71	30
64.72	25
64.73	22
64.74	29
64.75	28
64.76	34
64.77	36
64.78	37
64.79	39
64.8	27
64.81	35
64.82	47
64.83	31
64.84	50
64.85	42
64.86	48
64.87	67
64.88	48
64.89	45
64.9	64
64.91	52
64.92	70
64.93	50
64.94	57
64.95	76
64.96	88
64.97	86
64.98	98
64.99	100
65	102
65.01	101
65.02	110
65.03	134
65.04	115
65.05	158
65.06	162
65.07	178
65.08	222
65.09	231
65.1	253
65.11	280
65.12	289
65.13	348
65.14	403
65.15	475
65.16	529
65.17	625
65.18	684
65.19	846
65.2	1011
65.21	1104
65.22	1377
65.23	1619
65.24	1881
65.25	2038
65.26	2439
65.27	2708
65.28	2941
65.29	3074
65.3	3114
65.31	3324
65.32	3117
65.33	2966
65.34	2785
65.35	2555
65.36	2250
65.37	1870
65.38	1569
65.39	1293
65.4	1147
65.41	931
65.42	777
65.43	622
65.44	536
65.45	477
65.46	414
65.47	400
65.48	324
65.49	329
65.5	279
65.51	237
65.52	187
65.53	204
65.54	158
65.55	135
65.56	133
65.57	132
65.58	115
65.59	99
65.6	95
65.61	85
65.62	62
65.63	79
65.64	70
65.65	64
65.66	83
65.67	77
65.68	57
65.69	57
65.7	58
65.71	73
65.72	67
65.73	73
65.74	87
65.75	99
65.76	91
65.77	108
65.78	139
65.79	161
65.8	191
65.81	204
65.82	221
65.83	268
65.84	296
65.85	295
65.86	315
65.87	307
65.88	343
65.89	304
65.9	259
65.91	208
65.92	159
65.93	123
65.94	82
65.95	52
65.96	48
65.97	30
65.98	25
65.99	33
66	25
66.01	19
66.02	11
66.03	18
66.04	14
66.05	16
66.06	14
66.07	11
66.08	16
66.09	14
66.1	15
66.11	9.000000
66.12	9.000000
66.13	8.000000
66.14	14
66.15	6.000000
66.16	13
66.17	12
66.18	9.000000
66.19	15
66.2	9.000000
66.21	12
66.22	16
66.23	5.000000
66.24	11
66.25	9.000000
66.26	10
66.27	13
66.28	9.000000
66.29	11
66.3	6.000000
66.31	9.000000
66.32	6.000000
66.33	7.000000
66.34	8.000000
66.35	6.000000
66.36	8.000000
66.37	10
66.38	5.000000
66.39	14
66.4	8.000000
66.41	5.000000
66.42	13
66.43	8.000000
66.44	9.000000
66.45	8.000000
66.46	9.000000
66.47	13
66.48	3.000000
66.49	10
66.5	6.000000

; Data for range 20
_DRIVE = COUPLED
_STEPTIME = 19.2
_STEPSIZE = 0.01
_STEPMODE = C
_START = 61.5
_THETA = 30.75
_2THETA = 61.5
_KHI = -0.169602
_PHI = 0.000039
_X = 0.917012
_Y = -0.570996
_Z = 1.479004
_DETECTORSLIT = out
_AUX1 = 0
_AUX2 = -2.4
_DELAY = 120
_TIMESTARTED = 3884.197
_KV = 40
_MA = 40
_RANGE_WL = 1.5406
_3DPLANE = 0
_V4_PSD2THETA = 9999
_V4_PSDCHANNEL1 = 0
_V4_PSDAPERTURE = 2.057142
_V4_PSDTYPE = 5
_V4_PSDFIXED = 0
_V4_TEMPCONTROL = 0
_V4_TEMPSTAGE = 0
_V4_TEMPSENSOR = 0
_V4_TEMPERATURE = 363.15
_V4_TEMPRATE = 0
_V4_TEMPDELAY = 0
_V4_TEMPRAMPFLAG = 0
_V4_COUNTERS_MASK = 1
_V4_DRIVES_MASK = 0
_V4_ENCODERS_MASK = 0
_2THETACOUNTS = 1
; 2THETA	Cnt2_D1
61.5	14
61.51	9.000000
61.52	10
61.53	7.000000
61.54	11
61.55	9.000000
61.56	8.000000
61.57	14
61.58	7.000000
61.59	11
61.6	12
61.61	8.000000
61.62	15
61.63	5.000000
61.64	14
61.65	13
61.66	14
61.67	11
61.68	15
61.69	21
61.7	9.000000
61.71	14
61.72	17
61.73	17
61.74	21
61.75	26
61.76	21
61.77	12
61.78	12
61.79	8.000000
61.8	12
61.81	19
61.82	17
61.83	17
61.84	15
61.85	24
61.86	24
61.87	13
61.88	21
61.89	32
61.9	26
61.91	27
61.92	24
61.93	24
61.94	25
61.95	32
61.96	34
61.97	29
61.98	46
61.99	25
62	31
62.01	51
62.02	35
62.03	32
62.04	45
62.05	43
62.06	41
62.07	38
62.08	46
62.09	45
62.1	52
62.11	41
62.12	48
62.13	59
62.14	65
62.15	52
62.16	66
62.17	58
62.18	61
62.19	57
62.2	59
62.21	73
62.22	51
62.23	84
62.24	86
62.25	98
62.26	93
62.27	105
62.28	78
62.29	112
62.3	96
62.31	100
62.32	115
62.33	107
62.34	147
62.35	146
62.36	153
62.37	172
62.38	178
62.39	175
62.4	207
62.41	241
62.42	223
62.43	248
62.44	258
62.45	295
62.46	340
62.47	363
62.48	403
62.49	410
62.5	484
62.51	520
62.52	604
62.53	646
62.54	714
62.55	776
62.56	944
62.57	1073
62.58	1230
62.59	1447
62.6	1690
62.61	2050
62.62	2485
62.63	3272
62.64	4283
62.65	6463
62.66	10564
62.67	20413
62.68	48252
62.69	110824
62.7	176602
62.71	200273
62.72	167074
62.73	100534
62.74	47886
62.75	20698
62.76	10183
62.77	5826
62.78	3852
62.79	2923
62.8	2182
62.81	1808
62.82	1422
62.83	1249
62.84	1030
62.85	1066
62.86	919
62.87	836
62.88	663
62.89	569
62.9	492
62.91	425
62.92	417
62.93	313
62.94	295
62.95	313
62.96	247
62.97	249
62.98	229
62.99	230
63	184
63.01	175
63.02	168
63.03	177
63.04	125
63.05	147
63.06	131
63.07	129
63.08	119
63.09	103
63.1	104
63.11	114
63.12	83
63.13	83
63.14	94
63.15	79
63.16	83
63.17	71
63.18	62
63.19	56
63.2	62
63.21	72
63.22	69
63.23	62
63.24	59
63.25	42
63.26	56
63.27	62
63.28	54
63.29	51
63.3	56
63.31	38
63.32	48
63.33	45
63.34	38
63.35	45
63.36	44
63.37	34
63.38	38
63.39	35
63.4	27
63.41	34
63.42	24
63.43	32
63.44	33
63.45	25
63.46	30
63.47	35
63.48	29
63.49	29
63.5	25
63.51	25
63.52	34
63.53	25
63.54	26
63.55	30
63.56	27
63.57	17
63.58	26
63.59	23
63.6	31
63.61	20
63.62	25
63.63	24
63.64	24
63.65	29
63.66	18
63.67	18
63.68	35
63.69	16
63.7	25
63.71	23
63.72	21
63.73	24
63.74	18
63.75	15
63.76	11
63.77	26
63.78	7.000000
63.79	17
63.8	15
63.81	12
63.82	19
63.83	22
63.84	22
63.85	19
63.86	14
63.87	12
63.88	21
63.89	13
63.9	9.000000
63.91	21
63.92	14
63.93	15
63.94	13
63.95	15
63.96	22
63.97	25
63.98	19
63.99	13
64	18
64.01	16
64.02	11
64.03	21
64.04	21
64.05	18
64.06	11
64.07	11
64.08	23
64.09	17
64.1	28
64.11	16
64.12	18
64.13	15
64.14	19
64.15	17
64.16	24
64.17	26
64.18	16
64.19	19
64.2	14
64.21	11
64.22	16
64.23	21
64.24	22
64.25	18
64.26	22
64.27	23
64.28	22
64.29	19
64.3	12
64.31	15
64.32	11
64.33	10
64.34	20
64.35	13
64.36	13
64.37	21
64.38	18
64.39	15
64.4	11
64.41	12
64.42	9.000000
64.43	15
64.44	19
64.45	19
64.46	19
64.47	20
64.48	16
64.49	20
64.5	16
64.51	19
64.52	20
64.53	19
64.54	25
64.55	19
64.56	13
64.57	23
64.58	19
64.59	16
64.6	24
64.61	22
64.62	22
64.63	23
64.64	22
64.65	19
64.66	20
64.67	19
64.68	20
64.69	24
64.7	27
64.71	32
64.72	23
64.73	25
64.74	32
64.75	33
64.76	25
64.77	33
64.78	45
64.79	36
64.8	41
64.81	31
64.82	33
64.83	54
64.84	52
64.85	34
64.86	53
64.87	50
64.88	66
64.89	61
64.9	55
64.91	58
64.92	64
64.93	78
64.94	88
64.95	79
64.96	81
64.97	87
64.98	113
64.99	120
65	110
65.01	105
65.02	134
65.03	138
65.04	159
65.05	176
65.06	186
65.07	204
65.08	242
65.09	251
65.1	308
65.11	356
65.12	417
65.13	464
65.14	510
65.15	570
65.16	673
65.17	731
65.18	873
65.19	1048
65.2	1231
65.21	1468
65.22	1630
65.23	1955
65.24	2234
65.25	2578
65.26	2752
65.27	2870
65.28	3160
65.29	3242
65.3	3221
65.31	3086
65.32	2887
65.33	2673
65.34	2459
65.35	2121
65.36	1845
65.37	1467
65.38	1281
65.39	1101
65.4	818
65.41	733
65.42	659
65.43	543
65.44	466
65.45	382
65.46	372
65.47	349
65.48	300
65.49	258
65.5	219
65.51	228
65.52	191
65.53	138
65.54	157
65.55	155
65.56	108
65.57	119
65.58	110
65.59	97
65.6	112
65.61	75
65.62	77
65.63	69
65.64	56
65.65	70
65.66	56
65.67	48
65.68	65
65.69	80
65.7	55
65.71	70
65.72	69
65.73	91
65.74	72
65.75	97
65.76	113
65.77	128
65.78	111
65.79	154
65.8	191
65.81	182
65.82	251
65.83	258
65.84	295
65.85	314
65.86	288
65.87	353
65.88	309
65.89	305
65.9	248
65.91	241
65.92	146
65.93	97
65.94	81
65.95	47
65.96	38
65.97	33
65.98	32
65.99	14
66	16
66.01	17
66.02	21
66.03	13
66.04	16
66.05	16
66.06	17
66.07	14
66.08	11
66.09	14
66.1	12
66.11	12
66.12	15
66.13	11
66.14	10
66.15	5.000000
66.16	8.000000
66.17	6.000000
66.18	8.000000
66.19	5.000000
66.2	16
66.21	8.000000
66.22	6.000000
66.23	12
66.24	8.000000
66.25	14
66.26	12
66.27	11
66.28	7.000000
66.29	5.000000
66.3	8.000000
66.31	8.000000
66.32	7.000000
66.33	8.000000
66.34	10
66.35	10
66.36	9.000000
66.37	8.000000
66.38	3.000000
66.39	5.000000
66.4	11
66.41	5.000000
66.42	8.000000
66.43	8.000000
66.44	8.000000
66.45	8.000000
66.46	7.000000
66.47	11
66.48	10
66.49	6.000000
66.5	10

; Data for range 21
_DRIVE = COUPLED
_STEPTIME = 19.2
_STEPSIZE = 0.01
_STEPMODE = C
_START = 61.5
_THETA = 30.75
_2THETA = 61.5
_KHI = -0.169602
_PHI = 0.000039
_X = 0.917012
_Y = -0.570996
_Z = 1.479004
_DETECTORSLIT = out
_AUX1 = 0
_AUX2 = -2.4
_DELAY = 120
_TIMESTARTED = 4097.23
_KV = 40
_MA = 40
_RANGE_WL = 1.5406
_3DPLANE = 0
_V4_PSD2THETA = 9999
_V4_PSDCHANNEL1 = 0
_V4_PSDAPERTURE = 2.057142
_V4_PSDTYPE = 5
_V4_PSDFIXED = 0
_V4_TEMPCONTROL = 0
_V4_TEMPSTAGE = 0
_V4_TEMPSENSOR = 0
_V4_TEMPERATURE = 368.15
_V4_TEMPRATE = 0
_V4_TEMPDELAY = 0
_V4_TEMPRAMPFLAG = 0
_V4_COUNTERS_MASK = 1
_V4_DRIVES_MASK = 0
_V4_ENCODERS_MASK = 0
_2THETACOUNTS = 1
; 2THETA	Cnt2_D1
61.5	10
61.51	8.000000
61.52	10
61.53	8.000000
61.54	14
61.55	11
61.56	13
61.57	11
61.58	12
61.59	8.000000
61.6	10
61.61	7.000000
61.62	8.000000
61.63	15
61.64	12
61.65	18
61.66	15
61.67	20
61.68	20
61.69	18
61.7	17
61.71	10
61.72	14
61.73	11
61.74	15
61.75	16
61.76	23
61.77	12
61.78	14
61.79	10
61.8	23
61.81	24
61.82	20
61.83	24
61.84	17
61.85	25
61.86	20
61.87	23
61.88	17
61.89	27
61.9	18
61.91	26
61.92	35
61.93	30
61.94	35
61.95	27
61.96	21
61.97	38
61.98	35
61.99	32
62	28
62.01	43
62.02	45
62.03	55
62.04	42
62.05	53
62.06	42
62.07	36
62.08	40
62.09	56
62.1	66
62.11	56
62.12	42
62.13	64
62.14	43
62.15	60
62.16	57
62.17	78
62.18	69
62.19	70
62.2	65
62.21	70
62.22	81
62.23	90
62.24	96
62.25	70
62.26	103
62.27	89
62.28	106
62.29	137
62.3	122
62.31	109
62.32	123
62.33	133
62.34	132
62.35	165
62.36	155
62.37	160
62.38	213
62.39	203
62.4	202
62.41	231
62.42	256
62.43	248
62.44	259
62.45	342
62.46	330
62.47	360
62.48	362
62.49	431
62.5	487
62.51	537
62.52	614
62.53	622
62.54	746
62.55	846
62.56	994
62.57	1133
62.58	1386
62.59	1519
62.6	1829
62.61	2264
62.62	2842
62.63	3728
62.64	4983
62.65	7574
62.66	12784
62.67	26774
62.68	64264
62.69	134275
62.7	192985
62.71	200779
62.72	152991
62.73	85292
62.74	39160
62.75	17001
62.76	8685
62.77	5348
62.78	3662
62.79	2800
62.8	2142
62.81	1759
62.82	1517
62.83	1160
62.84	1182
62.85	999
62.86	912
62.87	854
62.88	658
62.89	551
62.9	470
62.91	425
62.92	371
62.93	345
62.94	296
62.95	245
62.96	217
62.97	225
62.98	220
62.99	195
63	205
63.01	179
63.02	161
63.03	127
63.04	139
63.05	139
63.06	120
63.07	125
63.08	107
63.09	114
63.1	114
63.11	101
63.12	90
63.13	84
63.14	86
63.15	69
63.16	72
63.17	67
63.18	73
63.19	73
63.2	69
63.21	62
63.22	66
63.23	60
63.24	66
63.25	72
63.26	65
63.27	55
63.28	56
63.29	51
63.3	68
63.31	64
63.32	31
63.33	52
63.34	37
63.35	38
63.36	44
63.37	44
63.38	26
63.39	35
63.4	35
63.41	25
63.42	26
63.43	23
63.44	35
63.45	33
63.46	32
63.47	25
63.48	25
63.49	27
63.5	20
63.51	30
63.52	32
63.53	30
63.54	36
63.55	26
63.56	24
63.57	28
63.58	25
63.59	18
63.6	20
63.61	31
63.62	23
63.63	21
63.64	25
63.65	25
63.66	20
63.67	20
63.68	18
63.69	14
63.7	24
63.71	14
63.72	25
63.73	18
63.74	28
63.75	16
63.76	11
63.77	17
63.78	19
63.79	17
63.8	17
63.81	13
63.82	19
63.83	11
63.84	12
63.85	16
63.86	14
63.87	21
63.88	18
63.89	12
63.9	23
63.91	13
63.92	19
63.93	17
63.94	22
63.95	18
63.96	21
63.97	20
63.98	19
63.99	13
64	8.000000
64.01	6.000000
64.02	10
64.03	18
64.04	23
64.05	11
64.06	26
64.07	15
64.08	16
64.09	11
64.1	23
64.11	16
64.12	23
64.13	18
64.14	10
64.15	15
64.16	17
64.17	22
64.18	17
64.19	17
64.2	20
64.21	19
64.22	14
64.23	15
64.24	21
64.25	16
64.26	9.000000
64.27	15
64.28	20
64.29	18
64.3	21
64.31	12
64.32	21
64.33	18
64.34	16
64.35	18
64.36	14
64.37	18
64.38	16
64.39	17
64.4	24
64.41	16
64.42	17
64.43	19
64.44	25
64.45	17
64.46	18
64.47	20
64.48	18
64.49	19
64.5	21
64.51	18
64.52	17
64.53	23
64.54	29
64.55	23
64.56	27
64.57	20
64.58	20
64.59	23
64.6	18
64.61	30
64.62	17
64.63	22
64.64	17
64.65	29
64.66	19
64.67	15
64.68	32
64.69	24
64.7	30
64.71	29
64.72	23
64.73	35
64.74	24
64.75	32
64.76	31
64.77	31
64.78	42
64.79	32
64.8	36
64.81	48
64.82	44
64.83	42
64.84	49
64.85	47
64.86	65
64.87	48
64.88	45
64.89	53
64.9	61
64.91	76
64.92	61
64.93	96
64.94	80
64.95	81
64.96	101
64.97	105
64.98	104
64.99	104
65	127
65.01	164
65.02	138
65.03	179
65.04	215
65.05	186
65.06	219
65.07	223
65.08	303
65.09	328
65.1	382
65.11	391
65.12	475
65.13	545
65.14	630
65.15	711
65.16	847
65.17	925
65.18	1034
65.19	1316
65.2	1495
65.21	1660
65.22	1926
65.23	2192
65.24	2501
65.25	2687
65.26	2853
65.27	3033
65.28	3139
65.29	3153
65.3	2980
65.31	2899
65.32	2621
65.33	2434
65.34	2079
65.35	1742
65.36	1557
65.37	1303
65.38	1077
65.39	931
65.4	765
65.41	629
65.42	521
65.43	475
65.44	401
65.45	380
65.46	336
65.47	266
65.48	260
65.49	222
65.5	228
65.51	179
65.52	148
65.53	149
65.54	157
65.55	125
65.56	121
65.57	81
65.58	89
65.59	85
65.6	89
65.61	71
65.62	77
65.63	58
65.64	55
65.65	67
65.66	71
65.67	45
65.68	57
65.69	40
65.7	48
65.71	59
65.72	62
65.73	79
65.74	76
65.75	84
65.76	100
65.77	133
65.78	163
65.79	164
65.8	206
65.81	205
65.82	241
65.83	239
65.84	291
65.85	318
65.86	315
65.87	319
65.88	310
65.89	306
65.9	259
65.91	214
65.92	167
65.93	115
65.94	72
65.95	47
65.96	48
65.97	23
65.98	21
65.99	21
66	24
66.01	19
66.02	13
66.03	12
66.04	17
66.05	12
66.06	10
66.07	10
66.08	11
66.09	11
66.1	6.000000
66.11	18
66.12	15
66.13	11
66.14	17
66.15	12
66.16	13
66.17	8.000000
66.18	11
66.19	7.000000
66.2	5.000000
66.21	7.000000
66.22	4.000000
66.23	9.000000
66.24	6.000000
66.25	7.000000
66.26	6.000000
66.27	13
66.28	8.000000
66.29	7.000000
66.3	6.000000
66.31	10
66.32	12
66.33	8.000000
66.34	6.000000
66.35	9.000000
66.36	12
66.37	5.000000
66.38	11
66.39	7.000000
66.4	6.000000
66.41	2.000000
66.42	4.000000
66.43	8.000000
66.44	12
66.45	11
66.46	6.000000
66.47	8.000000
66.48	6.000000
66.49	11
66.5	11

; Data for range 22
_DRIVE = COUPLED
_STEPTIME = 19.2
_STEPSIZE = 0.01
_STEPMODE = C
_START = 61.5
_THETA = 30.75
_2THETA = 61.5
_KHI = -0.169602
_PHI = 0.000039
_X = 0.917012
_Y = -0.570996
_Z = 1.479004
_DETECTORSLIT = out
_AUX1 = 0
_AUX2 = -2.4
_DELAY = 120
_TIMESTARTED = 4306.864
_KV = 40
_MA = 40
_RANGE_WL = 1.5406
_3DPLANE = 0
_V4_PSD2THETA = 9999
_V4_PSDCHANNEL1 = 0
_V4_PSDAPERTURE = 2.057142
_V4_PSDTYPE = 5
_V4_PSDFIXED = 0
_V4_TEMPCONTROL = 0
_V4_TEMPSTAGE = 0
_V4_TEMPSENSOR = 0
_V4_TEMPERATURE = 373.15
_V4_TEMPRATE = 0
_V4_TEMPDELAY = 0
_V4_TEMPRAMPFLAG = 0
_V4_COUNTERS_MASK = 1
_V4_DRIVES_MASK = 0
_V4_ENCODERS_MASK = 0
_2THETACOUNTS = 1
; 2THETA	Cnt2_D1
61.5	8.000000
61.51	15
61.52	10
61.53	11
61.54	11
61.55	10
61.56	7.000000
61.57	14
61.58	10
61.59	7.000000
61.6	15
61.61	7.000000
61.62	14
61.63	12
61.64	8.000000
61.65	9.000000
61.66	13
61.67	20
61.68	12
61.69	10
61.7	15
61.71	19
61.72	17
61.73	14
61.74	20
61.75	13
61.76	12
61.77	22
61.78	17
61.79	22
61.8	26
61.81	27
61.82	14
61.83	28
61.84	14
61.85	20
61.86	16
61.87	23
61.88	30
61.89	23
61.9	29
61.91	31
61.92	27
61.93	29
61.94	31
61.95	35
61.96	25
61.97	44
61.98	33
61.99	49
62	62
62.01	37
62.02	41
62.03	39
62.04	41
62.05	52
62.06	49
62.07	45
62.08	48
62.09	46
62.1	61
62.11	34
62.12	57
62.13	56
62.14	66
62.15	64
62.16	60
62.17	64
62.18	73
62.19	72
62.2	69
62.21	93
62.22	84
62.23	74
62.24	85
62.25	90
62.26	89
62.27	105
62.28	103
62.29	131
62.3	131
62.31	130
62.32	135
62.33	144
62.34	136
62.35	156
62.36	146
62.37	183
62.38	176
62.39	202
62.4	209
62.41	229
62.42	231
62.43	265
62.44	284
62.45	356
62.46	356
62.47	382
62.48	465
62.49	476
62.5	495
62.51	550
62.52	642
62.53	667
62.54	834
62.55	942
62.56	1003
62.57	1237
62.58	1395
62.59	1752
62.6	2065
62.61	2540
62.62	3040
62.63	4313
62.64	5688
62.65	9123
62.66	16599
62.67	36305
62.68	85590
62.69	159941
62.7	202481
62.71	191709
62.72	130945
62.73	68152
62.74	30573
62.75	13698
62.76	7365
62.77	4666
62.78	3460
62.79	2556
62.8	1938
62.81	1643
62.82	1374
62.83	1244
62.84	1074
62.85	1016
62.86	883
62.87	745
62.88	610
62.89	482
62.9	461
62.91	403
62.92	351
62.93	317
62.94	276
62.95	241
62.96	236
62.97	234
62.98	209
62.99	199
63	177
63.01	175
63.02	145
63.03	149
63.04	134
63.05	139
63.06	138
63.07	137
63.08	122
63.09	123
63.1	94
63.11	100
63.12	97
63.13	80
63.14	92
63.15	85
63.16	72
63.17	85
63.18	89
63.19	55
63.2	70
63.21	62
63.22	65
63.23	70
63.24	59
63.25	62
63.26	42
63.27	47
63.28	54
63.29	51
63.3	52
63.31	52
63.32	34
63.33	41
63.34	42
63.35	45
63.36	29
63.37	44
63.38	36
63.39	32
63.4	39
63.41	23
63.42	22
63.43	33
63.44	35
63.45	30
63.46	27
63.47	27
63.48	29
63.49	28
63.5	24
63.51	23
63.52	30
63.53	23
63.54	28
63.55	29
63.56	31
63.57	25
63.58	18
63.59	28
63.6	22
63.61	25
63.62	27
63.63	30
63.64	19
63.65	15
63.66	22
63.67	21
63.68	26
63.69	16
63.7	15
63.71	16
63.72	18
63.73	18
63.74	8.000000
63.75	13
63.76	20
63.77	18
63.78	17
63.79	20
63.8	16
63.81	15
63.82	21
63.83	14
63.84	22
63.85	15
63.86	18
63.87	15
63.88	8.000000
63.89	8.000000
63.9	20
63.91	11
63.92	14
63.93	17
63.94	19
63.95	22
63.96	19
63.97	32
63.98	20
63.99	20
64	19
64.01	19
64.02	16
64.03	15
64.04	19
64.05	20
64.06	17
64.07	26
64.08	12
64.09	16
64.1	11
64.11	13
64.12	18
64.13	12
64.14	26
64.15	9.000000
64.16	16
64.17	14
64.18	9.000000
64.19	17
64.2	21
64.21	16
64.22	24
64.23	16
64.24	18
64.25	18
64.26	12
64.27	16
64.28	12
64.29	23
64.3	18
64.31	20
64.32	18
64.33	16
64.34	17
64.35	25
64.36	21
64.37	17
64.38	16
64.39	15
64.4	17
64.41	24
64.42	16
64.43	16
64.44	18
64.45	17
64.46	15
64.47	17
64.48	17
64.49	21
64.5	17
64.51	9.000000
64.52	22
64.53	18
64.54	20
64.55	21
64.56	21
64.57	15
64.58	16
64.59	13
64.6	22
64.61	22
64.62	24
64.63	26
64.64	23
64.65	22
64.66	27
64.67	32
64.68	26
64.69	30
64.7	28
64.71	19
64.72	30
64.73	38
64.74	43
64.75	27
64.76	29
64.77	37
64.78	40
64.79	31
64.8	44
64.81	44
64.82	34
64.83	46
64.84	53
64.85	63
64.86	54
64.87	50
64.88	61
64.89	67
64.9	74
64.91	65
64.92	76
64.93	88
64.94	78
64.95	84
64.96	88
64.97	109
64.98	119
64.99	138
65	152
65.01	172
65.02	185
65.03	181
65.04	209
65.05	234
65.06	284
65.07	291
65.08	369
65.09	358
65.1	443
65.11	485
65.12	578
65.13	665
65.14	723
65.15	831
65.16	971
65.17	1097
65.18	1270
65.19	1535
65.2	1764
65.21	2065
65.22	2192
65.23	2539
65.24	2664
65.25	2832
65.26	3057
65.27	3128
65.28	2948
65.29	2996
65.3	2833
65.31	2541
65.32	2455
65.33	2008
65.34	1829
65.35	1538
65.36	1257
65.37	1097
65.38	877
65.39	777
65.4	604
65.41	538
65.42	467
65.43	412
65.44	374
65.45	322
65.46	268
65.47	251
65.48	234
65.49	193
65.5	191
65.51	174
65.52	140
65.53	129
65.54	114
65.55	105
65.56	101
65.57	90
65.58	76
65.59	74
65.6	71
65.61	65
65.62	58
65.63	58
65.64	69
65.65	57
65.66	54
65.67	46
65.68	60
65.69	63
65.7	53
65.71	54
65.72	82
65.73	68
65.74	88
65.75	95
65.76	120
65.77	111
65.78	158
65.79	154
65.8	192
65.81	239
65.82	237
65.83	261
65.84	294
65.85	306
65.86	334
65.87	323
65.88	325
65.89	287
65.9	225
65.91	179
65.92	144
65.93	104
65.94	71
65.95	52
65.96	37
65.97	25
65.98	13
65.99	28
66	19
66.01	17
66.02	24
66.03	9.000000
66.04	8.000000
66.05	24
66.06	14
66.07	9.000000
66.08	8.000000
66.09	8.000000
66.1	12
66.11	10
66.12	12
66.13	13
66.14	15
66.15	8.000000
66.16	14
66.17	12
66.18	7.000000
66.19	9.000000
66.2	9.000000
66.21	11
66.22	8.000000
66.23	4.000000
66.24	13
66.25	16
66.26	4.000000
66.27	11
66.28	14
66.29	4.000000
66.3	13
66.31	11
66.32	7.000000
66.33	8.000000
66.34	5.000000
66.35	7.000000
66.36	6.000000
66.37	10
66.38	9.000000
66.39	7.000000
66.4	9.000000
66.41	11
66.42	10
66.43	8.000000
66.44	7.000000
66.45	8.000000
66.46	12
66.47	13
66.48	9.000000
66.49	9.000000
66.5	10