File: Examples/Yscan.uxd
;content of D:\DATA\V_Thery\VO2gradT\campagne2\100 nm\th2th392-419-001-01-1D-scanY-10-10 UP.raw - (Diffrac Plus V4 file)
_FILEVERSION = 3
_SAMPLE
_+SAMPLE
_USER = Lab Manager
_GONIOMETER_CODE = 20
_STAGE_CODE = 4
; Goniometer : D8 theta/2theta, stage : Open eulerian craddle
_SAMPLE_CHANGER_CODE = 0
_ATTACHMENTS_CODE = 0
_GONIOMETER_RADIUS = 390
_FIXED_DETSLIT = 0
_MONOCHROMATOR = 0
; Incident beam monochromator : None
_BETA_FILTER = N
_ANALYZER_CODE = 0
; Received beam analyzer : None
_DATEMEASURED = 07-Sep-2015 16:13:52
_RUNTIME = 44.81237
_WL_UNIT = A
_WL1 = 1.5406
_WL2 = 1.54439
_WL3 = 1.39222
_WLRATIO = 0.5
_ANODE = Cu
_V4_INF_USER = Lab Manager
_V4_INF_CREATOR = V5Converter
_V4_INF_CREATOR_VERSION = 3.3.50.0

; Data for range 1
_DRIVE = COUPLED
_STEPTIME = 19.2
_STEPSIZE = 0.01
_STEPMODE = C
_START = 39.2
_THETA = 19.6
_2THETA = 39.2
_KHI = -0.162797
_PHI = 0.000039
_X = -2.007
_Y = -11.076
_Z = -0.810996
_DETECTORSLIT = out
_AUX1 = 0
_AUX2 = -2.4
_TIMESTARTED = 0
_KV = 40
_MA = 40
_RANGE_WL = 1.5406
_3DPLANE = 0
_V4_PSD2THETA = 9999
_V4_PSDCHANNEL1 = 0
_V4_PSDAPERTURE = 2.057142
_V4_PSDTYPE = 5
_V4_PSDFIXED = 0
_V4_TEMPCONTROL = 0
_V4_TEMPSTAGE = 0
_V4_TEMPSENSOR = 0
_V4_TEMPERATURE = 273.15
_V4_TEMPRATE = 0
_V4_TEMPDELAY = 0
_V4_TEMPRAMPFLAG = 0
_V4_COUNTERS_MASK = 1
_V4_DRIVES_MASK = 0
_V4_ENCODERS_MASK = 0
_2THETACOUNTS = 1
; 2THETA	Cnt2_D1
39.2	16
39.21	17
39.22	14
39.23	10
39.24	12
39.25	10
39.26	16
39.27	9.000000
39.28	20
39.29	18
39.3	13
39.31	17
39.32	14
39.33	14
39.34	13
39.35	11
39.36	12
39.37	18
39.38	13
39.39	10
39.4	9.000000
39.41	14
39.42	13
39.43	9.000000
39.44	12
39.45	15
39.46	11
39.47	12
39.48	15
39.49	16
39.5	12
39.51	10
39.52	12
39.53	10
39.54	13
39.55	13
39.56	10
39.57	15
39.58	20
39.59	14
39.6	11
39.61	9.000000
39.62	12
39.63	17
39.64	10
39.65	14
39.66	18
39.67	12
39.68	16
39.69	10
39.7	15
39.71	13
39.72	9.000000
39.73	19
39.74	14
39.75	18
39.76	12
39.77	17
39.78	7.000000
39.79	14
39.8	9.000000
39.81	11
39.82	15
39.83	7.000000
39.84	11
39.85	12
39.86	16
39.87	14
39.88	10
39.89	12
39.9	12
39.91	14
39.92	17
39.93	17
39.94	8.000000
39.95	16
39.96	15
39.97	10
39.98	20
39.99	12
40	9.000000
40.01	13
40.02	20
40.03	5.000000
40.04	14
40.05	8.000000
40.06	12
40.07	16
40.08	16
40.09	12
40.1	12
40.11	12
40.12	13
40.13	15
40.14	10
40.15	8.000000
40.16	11
40.17	10
40.18	12
40.19	13
40.2	19
40.21	13
40.22	10
40.23	10
40.24	15
40.25	19
40.26	10
40.27	13
40.28	18
40.29	19
40.3	10
40.31	12
40.32	12
40.33	13
40.34	14
40.35	9.000000
40.36	10
40.37	16
40.38	15
40.39	11
40.4	8.000000
40.41	10
40.42	15
40.43	10
40.44	14
40.45	12
40.46	10
40.47	10
40.48	10
40.49	10
40.5	10
40.51	16
40.52	11
40.53	15
40.54	12
40.55	16
40.56	13
40.57	9.000000
40.58	14
40.59	13
40.6	8.000000
40.61	17
40.62	13
40.63	15
40.64	13
40.65	23
40.66	11
40.67	16
40.68	13
40.69	13
40.7	7.000000
40.71	6.000000
40.72	12
40.73	16
40.74	15
40.75	14
40.76	14
40.77	15
40.78	18
40.79	10
40.8	7.000000
40.81	12
40.82	13
40.83	11
40.84	17
40.85	8.000000
40.86	15
40.87	13
40.88	12
40.89	10
40.9	10
40.91	5.000000
40.92	9.000000
40.93	9.000000
40.94	8.000000
40.95	12
40.96	17
40.97	8.000000
40.98	17
40.99	10
41	15
41.01	14
41.02	10
41.03	8.000000
41.04	6.000000
41.05	13
41.06	18
41.07	16
41.08	6.000000
41.09	7.000000
41.1	12
41.11	14
41.12	15
41.13	12
41.14	13
41.15	17
41.16	17
41.17	7.000000
41.18	14
41.19	14
41.2	11
41.21	20
41.22	8.000000
41.23	14
41.24	15
41.25	11
41.26	17
41.27	12
41.28	14
41.29	15
41.3	16
41.31	10
41.32	17
41.33	11
41.34	11
41.35	17
41.36	21
41.37	15
41.38	10
41.39	16
41.4	15
41.41	16
41.42	17
41.43	23
41.44	14
41.45	21
41.46	25
41.47	22
41.48	21
41.49	15
41.5	13
41.51	19
41.52	12
41.53	16
41.54	15
41.55	18
41.56	11
41.57	22
41.58	24
41.59	37
41.6	120
41.61	464
41.62	1481
41.63	3173
41.64	3372
41.65	1373
41.66	183
41.67	54
41.68	37
41.69	28
41.7	33
41.71	23
41.72	18
41.73	17
41.74	24
41.75	19
41.76	14
41.77	15
41.78	11
41.79	14
41.8	6.000000
41.81	6.000000
41.82	11
41.83	19
41.84	9.000000
41.85	5.000000
41.86	16
41.87	11
41.88	10
41.89	17
41.9	10

; Data for range 2
_DRIVE = COUPLED
_STEPTIME = 19.2
_STEPSIZE = 0.01
_STEPMODE = C
_START = 39.2
_THETA = 19.6
_2THETA = 39.2
_KHI = -0.162797
_PHI = 0.000039
_X = -2.007
_Y = -10.826
_Z = -0.810996
_DETECTORSLIT = out
_AUX1 = 0
_AUX2 = -2.4
_TIMESTARTED = 58.0321
_KV = 40
_MA = 40
_RANGE_WL = 1.5406
_3DPLANE = 0
_V4_PSD2THETA = 9999
_V4_PSDCHANNEL1 = 0
_V4_PSDAPERTURE = 2.057142
_V4_PSDTYPE = 5
_V4_PSDFIXED = 0
_V4_TEMPCONTROL = 0
_V4_TEMPSTAGE = 0
_V4_TEMPSENSOR = 0
_V4_TEMPERATURE = 273.15
_V4_TEMPRATE = 0
_V4_TEMPDELAY = 0
_V4_TEMPRAMPFLAG = 0
_V4_COUNTERS_MASK = 1
_V4_DRIVES_MASK = 0
_V4_ENCODERS_MASK = 0
_2THETACOUNTS = 1
; 2THETA	Cnt2_D1
39.2	10
39.21	16
39.22	14
39.23	13
39.24	15
39.25	10
39.26	19
39.27	15
39.28	9.000000
39.29	18
39.3	10
39.31	17
39.32	10
39.33	11
39.34	15
39.35	13
39.36	18
39.37	15
39.38	12
39.39	16
39.4	14
39.41	13
39.42	13
39.43	17
39.44	10
39.45	10
39.46	15
39.47	22
39.48	20
39.49	21
39.5	17
39.51	15
39.52	13
39.53	13
39.54	14
39.55	19
39.56	7.000000
39.57	12
39.58	21
39.59	9.000000
39.6	13
39.61	16
39.62	12
39.63	18
39.64	14
39.65	17
39.66	10
39.67	13
39.68	24
39.69	14
39.7	17
39.71	12
39.72	21
39.73	20
39.74	10
39.75	15
39.76	9.000000
39.77	8.000000
39.78	20
39.79	18
39.8	16
39.81	14
39.82	10
39.83	21
39.84	9.000000
39.85	10
39.86	5.000000
39.87	11
39.88	15
39.89	13
39.9	13
39.91	20
39.92	22
39.93	13
39.94	17
39.95	17
39.96	8.000000
39.97	15
39.98	18
39.99	11
40	16
40.01	10
40.02	8.000000
40.03	12
40.04	8.000000
40.05	19
40.06	13
40.07	16
40.08	12
40.09	9.000000
40.1	13
40.11	8.000000
40.12	16
40.13	11
40.14	14
40.15	17
40.16	10
40.17	15
40.18	21
40.19	15
40.2	19
40.21	14
40.22	8.000000
40.23	19
40.24	15
40.25	15
40.26	19
40.27	12
40.28	13
40.29	10
40.3	6.000000
40.31	18
40.32	6.000000
40.33	17
40.34	9.000000
40.35	15
40.36	13
40.37	18
40.38	11
40.39	15
40.4	13
40.41	19
40.42	11
40.43	10
40.44	14
40.45	10
40.46	11
40.47	8.000000
40.48	15
40.49	16
40.5	16
40.51	19
40.52	10
40.53	12
40.54	13
40.55	15
40.56	14
40.57	10
40.58	11
40.59	14
40.6	19
40.61	8.000000
40.62	13
40.63	11
40.64	14
40.65	13
40.66	12
40.67	12
40.68	13
40.69	14
40.7	20
40.71	15
40.72	9.000000
40.73	21
40.74	15
40.75	11
40.76	11
40.77	13
40.78	19
40.79	15
40.8	14
40.81	13
40.82	11
40.83	15
40.84	9.000000
40.85	17
40.86	7.000000
40.87	11
40.88	24
40.89	8.000000
40.9	12
40.91	16
40.92	10
40.93	14
40.94	14
40.95	14
40.96	11
40.97	14
40.98	18
40.99	14
41	13
41.01	21
41.02	23
41.03	26
41.04	15
41.05	14
41.06	16
41.07	15
41.08	17
41.09	12
41.1	9.000000
41.11	16
41.12	18
41.13	19
41.14	17
41.15	19
41.16	16
41.17	12
41.18	14
41.19	18
41.2	14
41.21	16
41.22	18
41.23	12
41.24	16
41.25	12
41.26	17
41.27	12
41.28	14
41.29	21
41.3	19
41.31	6.000000
41.32	12
41.33	10
41.34	19
41.35	8.000000
41.36	15
41.37	15
41.38	16
41.39	18
41.4	17
41.41	17
41.42	22
41.43	19
41.44	17
41.45	21
41.46	18
41.47	22
41.48	27
41.49	16
41.5	22
41.51	24
41.52	30
41.53	20
41.54	14
41.55	23
41.56	30
41.57	42
41.58	51
41.59	60
41.6	90
41.61	222
41.62	786
41.63	4701
41.64	19283
41.65	36036
41.66	20654
41.67	2276
41.68	194
41.69	102
41.7	72
41.71	52
41.72	55
41.73	32
41.74	36
41.75	38
41.76	22
41.77	31
41.78	15
41.79	19
41.8	17
41.81	27
41.82	21
41.83	22
41.84	18
41.85	17
41.86	21
41.87	15
41.88	16
41.89	17
41.9	19

; Data for range 3
_DRIVE = COUPLED
_STEPTIME = 19.2
_STEPSIZE = 0.01
_STEPMODE = C
_START = 39.2
_THETA = 19.6
_2THETA = 39.2
_KHI = -0.162797
_PHI = 0.000039
_X = -2.007
_Y = -10.576
_Z = -0.810996
_DETECTORSLIT = out
_AUX1 = 0
_AUX2 = -2.4
_TIMESTARTED = 114.7538
_KV = 40
_MA = 40
_RANGE_WL = 1.5406
_3DPLANE = 0
_V4_PSD2THETA = 9999
_V4_PSDCHANNEL1 = 0
_V4_PSDAPERTURE = 2.057142
_V4_PSDTYPE = 5
_V4_PSDFIXED = 0
_V4_TEMPCONTROL = 0
_V4_TEMPSTAGE = 0
_V4_TEMPSENSOR = 0
_V4_TEMPERATURE = 273.15
_V4_TEMPRATE = 0
_V4_TEMPDELAY = 0
_V4_TEMPRAMPFLAG = 0
_V4_COUNTERS_MASK = 1
_V4_DRIVES_MASK = 0
_V4_ENCODERS_MASK = 0
_2THETACOUNTS = 1
; 2THETA	Cnt2_D1
39.2	11
39.21	15
39.22	12
39.23	16
39.24	14
39.25	10
39.26	24
39.27	12
39.28	15
39.29	17
39.3	21
39.31	16
39.32	16
39.33	13
39.34	13
39.35	19
39.36	9.000000
39.37	21
39.38	8.000000
39.39	10
39.4	12
39.41	17
39.42	17
39.43	17
39.44	15
39.45	13
39.46	21
39.47	9.000000
39.48	16
39.49	18
39.5	14
39.51	20
39.52	10
39.53	9.000000
39.54	17
39.55	13
39.56	10
39.57	13
39.58	13
39.59	30
39.6	13
39.61	17
39.62	10
39.63	15
39.64	20
39.65	15
39.66	14
39.67	9.000000
39.68	9.000000
39.69	12
39.7	17
39.71	17
39.72	18
39.73	13
39.74	18
39.75	7.000000
39.76	18
39.77	25
39.78	14
39.79	19
39.8	13
39.81	16
39.82	21
39.83	22
39.84	14
39.85	11
39.86	19
39.87	17
39.88	18
39.89	16
39.9	17
39.91	18
39.92	18
39.93	21
39.94	17
39.95	16
39.96	17
39.97	10
39.98	14
39.99	9.000000
40	22
40.01	16
40.02	12
40.03	19
40.04	21
40.05	19
40.06	14
40.07	11
40.08	18
40.09	18
40.1	13
40.11	12
40.12	12
40.13	13
40.14	23
40.15	15
40.16	10
40.17	18
40.18	12
40.19	15
40.2	11
40.21	15
40.22	17
40.23	17
40.24	18
40.25	16
40.26	7.000000
40.27	10
40.28	15
40.29	15
40.3	7.000000
40.31	18
40.32	13
40.33	14
40.34	17
40.35	15
40.36	16
40.37	9.000000
40.38	22
40.39	12
40.4	14
40.41	10
40.42	24
40.43	18
40.44	12
40.45	18
40.46	26
40.47	13
40.48	12
40.49	17
40.5	11
40.51	14
40.52	19
40.53	22
40.54	15
40.55	12
40.56	21
40.57	21
40.58	16
40.59	24
40.6	14
40.61	12
40.62	19
40.63	15
40.64	19
40.65	11
40.66	16
40.67	16
40.68	14
40.69	9.000000
40.7	16
40.71	9.000000
40.72	21
40.73	13
40.74	13
40.75	11
40.76	18
40.77	14
40.78	11
40.79	14
40.8	10
40.81	16
40.82	14
40.83	14
40.84	14
40.85	11
40.86	13
40.87	18
40.88	18
40.89	20
40.9	11
40.91	15
40.92	13
40.93	22
40.94	13
40.95	26
40.96	19
40.97	14
40.98	11
40.99	18
41	25
41.01	20
41.02	14
41.03	18
41.04	8.000000
41.05	11
41.06	19
41.07	17
41.08	14
41.09	19
41.1	18
41.11	20
41.12	15
41.13	15
41.14	13
41.15	13
41.16	19
41.17	17
41.18	16
41.19	19
41.2	21
41.21	20
41.22	18
41.23	18
41.24	21
41.25	18
41.26	10
41.27	18
41.28	12
41.29	18
41.3	15
41.31	22
41.32	16
41.33	14
41.34	17
41.35	14
41.36	16
41.37	24
41.38	21
41.39	29
41.4	28
41.41	30
41.42	27
41.43	25
41.44	19
41.45	21
41.46	26
41.47	32
41.48	24
41.49	23
41.5	18
41.51	27
41.52	18
41.53	30
41.54	29
41.55	36
41.56	33
41.57	28
41.58	48
41.59	70
41.6	71
41.61	140
41.62	279
41.63	1202
41.64	9367
41.65	38356
41.66	57101
41.67	36402
41.68	5580
41.69	426
41.7	178
41.71	102
41.72	85
41.73	71
41.74	57
41.75	45
41.76	49
41.77	36
41.78	26
41.79	34
41.8	24
41.81	23
41.82	18
41.83	21
41.84	26
41.85	17
41.86	22
41.87	22
41.88	24
41.89	20
41.9	20

; Data for range 4
_DRIVE = COUPLED
_STEPTIME = 19.2
_STEPSIZE = 0.01
_STEPMODE = C
_START = 39.2
_THETA = 19.6
_2THETA = 39.2
_KHI = -0.162797
_PHI = 0.000039
_X = -2.007
_Y = -10.326
_Z = -0.810996
_DETECTORSLIT = out
_AUX1 = 0
_AUX2 = -2.4
_TIMESTARTED = 348.1146
_KV = 40
_MA = 40
_RANGE_WL = 1.5406
_3DPLANE = 0
_V4_PSD2THETA = 9999
_V4_PSDCHANNEL1 = 0
_V4_PSDAPERTURE = 2.057142
_V4_PSDTYPE = 5
_V4_PSDFIXED = 0
_V4_TEMPCONTROL = 0
_V4_TEMPSTAGE = 0
_V4_TEMPSENSOR = 0
_V4_TEMPERATURE = 273.15
_V4_TEMPRATE = 0
_V4_TEMPDELAY = 0
_V4_TEMPRAMPFLAG = 0
_V4_COUNTERS_MASK = 1
_V4_DRIVES_MASK = 0
_V4_ENCODERS_MASK = 0
_2THETACOUNTS = 1
; 2THETA	Cnt2_D1
39.2	14
39.21	15
39.22	18
39.23	22
39.24	10
39.25	25
39.26	16
39.27	17
39.28	10
39.29	13
39.3	20
39.31	17
39.32	17
39.33	16
39.34	23
39.35	6.000000
39.36	18
39.37	15
39.38	18
39.39	20
39.4	17
39.41	20
39.42	13
39.43	26
39.44	16
39.45	19
39.46	16
39.47	17
39.48	12
39.49	9.000000
39.5	14
39.51	20
39.52	23
39.53	22
39.54	19
39.55	22
39.56	10
39.57	12
39.58	22
39.59	19
39.6	25
39.61	17
39.62	15
39.63	25
39.64	11
39.65	16
39.66	20
39.67	17
39.68	19
39.69	19
39.7	20
39.71	11
39.72	12
39.73	16
39.74	15
39.75	20
39.76	14
39.77	18
39.78	17
39.79	9.000000
39.8	18
39.81	15
39.82	20
39.83	11
39.84	13
39.85	18
39.86	16
39.87	16
39.88	17
39.89	15
39.9	19
39.91	23
39.92	12
39.93	24
39.94	11
39.95	14
39.96	17
39.97	24
39.98	16
39.99	16
40	13
40.01	19
40.02	15
40.03	22
40.04	28
40.05	9.000000
40.06	22
40.07	13
40.08	18
40.09	19
40.1	20
40.11	11
40.12	15
40.13	14
40.14	15
40.15	17
40.16	14
40.17	16
40.18	20
40.19	12
40.2	13
40.21	20
40.22	18
40.23	16
40.24	18
40.25	14
40.26	19
40.27	22
40.28	15
40.29	17
40.3	19
40.31	14
40.32	15
40.33	20
40.34	18
40.35	16
40.36	17
40.37	16
40.38	19
40.39	21
40.4	8.000000
40.41	12
40.42	6.000000
40.43	18
40.44	20
40.45	14
40.46	16
40.47	14
40.48	7.000000
40.49	25
40.5	14
40.51	14
40.52	11
40.53	24
40.54	20
40.55	20
40.56	10
40.57	15
40.58	11
40.59	20
40.6	13
40.61	12
40.62	13
40.63	14
40.64	21
40.65	17
40.66	13
40.67	17
40.68	10
40.69	13
40.7	11
40.71	18
40.72	16
40.73	26
40.74	9.000000
40.75	31
40.76	16
40.77	25
40.78	9.000000
40.79	15
40.8	11
40.81	13
40.82	17
40.83	17
40.84	20
40.85	14
40.86	18
40.87	19
40.88	20
40.89	18
40.9	15
40.91	21
40.92	19
40.93	14
40.94	14
40.95	12
40.96	7.000000
40.97	12
40.98	21
40.99	19
41	27
41.01	18
41.02	28
41.03	16
41.04	23
41.05	20
41.06	10
41.07	15
41.08	16
41.09	10
41.1	15
41.11	18
41.12	17
41.13	18
41.14	19
41.15	23
41.16	22
41.17	21
41.18	15
41.19	21
41.2	21
41.21	22
41.22	22
41.23	17
41.24	18
41.25	21
41.26	18
41.27	22
41.28	19
41.29	22
41.3	23
41.31	21
41.32	33
41.33	14
41.34	29
41.35	12
41.36	25
41.37	19
41.38	26
41.39	25
41.4	26
41.41	18
41.42	27
41.43	22
41.44	17
41.45	29
41.46	28
41.47	29
41.48	22
41.49	21
41.5	25
41.51	28
41.52	29
41.53	32
41.54	31
41.55	30
41.56	21
41.57	27
41.58	34
41.59	44
41.6	70
41.61	74
41.62	205
41.63	880
41.64	7070
41.65	32490
41.66	52422
41.67	49350
41.68	26243
41.69	4222
41.7	360
41.71	118
41.72	64
41.73	54
41.74	47
41.75	36
41.76	36
41.77	34
41.78	27
41.79	31
41.8	29
41.81	25
41.82	18
41.83	18
41.84	20
41.85	21
41.86	28
41.87	17
41.88	20
41.89	29
41.9	18

; Data for range 5
_DRIVE = COUPLED
_STEPTIME = 19.2
_STEPSIZE = 0.01
_STEPMODE = C
_START = 39.2
_THETA = 19.6
_2THETA = 39.2
_KHI = -0.162797
_PHI = 0.000039
_X = -2.007
_Y = -10.076
_Z = -0.810996
_DETECTORSLIT = out
_AUX1 = 0
_AUX2 = -2.4
_TIMESTARTED = 404.8207
_KV = 40
_MA = 40
_RANGE_WL = 1.5406
_3DPLANE = 0
_V4_PSD2THETA = 9999
_V4_PSDCHANNEL1 = 0
_V4_PSDAPERTURE = 2.057142
_V4_PSDTYPE = 5
_V4_PSDFIXED = 0
_V4_TEMPCONTROL = 0
_V4_TEMPSTAGE = 0
_V4_TEMPSENSOR = 0
_V4_TEMPERATURE = 273.15
_V4_TEMPRATE = 0
_V4_TEMPDELAY = 0
_V4_TEMPRAMPFLAG = 0
_V4_COUNTERS_MASK = 1
_V4_DRIVES_MASK = 0
_V4_ENCODERS_MASK = 0
_2THETACOUNTS = 1
; 2THETA	Cnt2_D1
39.2	19
39.21	18
39.22	13
39.23	15
39.24	17
39.25	15
39.26	10
39.27	15
39.28	12
39.29	19
39.3	16
39.31	13
39.32	21
39.33	18
39.34	21
39.35	18
39.36	12
39.37	25
39.38	10
39.39	11
39.4	21
39.41	13
39.42	11
39.43	13
39.44	14
39.45	21
39.46	14
39.47	14
39.48	13
39.49	8.000000
39.5	12
39.51	20
39.52	21
39.53	19
39.54	20
39.55	12
39.56	14
39.57	16
39.58	26
39.59	16
39.6	13
39.61	17
39.62	19
39.63	23
39.64	16
39.65	14
39.66	14
39.67	11
39.68	19
39.69	18
39.7	17
39.71	23
39.72	20
39.73	21
39.74	8.000000
39.75	18
39.76	14
39.77	20
39.78	10
39.79	20
39.8	11
39.81	16
39.82	19
39.83	11
39.84	25
39.85	24
39.86	18
39.87	21
39.88	20
39.89	16
39.9	11
39.91	23
39.92	20
39.93	20
39.94	11
39.95	13
39.96	20
39.97	15
39.98	13
39.99	14
40	12
40.01	19
40.02	16
40.03	20
40.04	18
40.05	18
40.06	23
40.07	13
40.08	16
40.09	14
40.1	8.000000
40.11	9.000000
40.12	16
40.13	17
40.14	13
40.15	19
40.16	15
40.17	14
40.18	16
40.19	13
40.2	17
40.21	17
40.22	10
40.23	22
40.24	19
40.25	13
40.26	14
40.27	9.000000
40.28	20
40.29	19
40.3	23
40.31	18
40.32	10
40.33	17
40.34	17
40.35	16
40.36	15
40.37	9.000000
40.38	23
40.39	15
40.4	12
40.41	15
40.42	20
40.43	17
40.44	16
40.45	24
40.46	19
40.47	15
40.48	21
40.49	11
40.5	11
40.51	19
40.52	17
40.53	9.000000
40.54	10
40.55	20
40.56	8.000000
40.57	13
40.58	17
40.59	16
40.6	16
40.61	19
40.62	12
40.63	10
40.64	17
40.65	15
40.66	16
40.67	13
40.68	8.000000
40.69	11
40.7	21
40.71	13
40.72	16
40.73	29
40.74	18
40.75	13
40.76	16
40.77	26
40.78	11
40.79	9.000000
40.8	14
40.81	28
40.82	16
40.83	19
40.84	15
40.85	17
40.86	24
40.87	16
40.88	14
40.89	16
40.9	18
40.91	13
40.92	18
40.93	16
40.94	17
40.95	15
40.96	14
40.97	15
40.98	14
40.99	23
41	18
41.01	13
41.02	19
41.03	12
41.04	16
41.05	15
41.06	15
41.07	16
41.08	13
41.09	12
41.1	15
41.11	14
41.12	12
41.13	20
41.14	19
41.15	12
41.16	20
41.17	19
41.18	24
41.19	17
41.2	9.000000
41.21	24
41.22	18
41.23	20
41.24	24
41.25	11
41.26	18
41.27	16
41.28	23
41.29	17
41.3	22
41.31	15
41.32	17
41.33	17
41.34	30
41.35	19
41.36	14
41.37	31
41.38	30
41.39	16
41.4	19
41.41	27
41.42	26
41.43	26
41.44	26
41.45	21
41.46	29
41.47	23
41.48	33
41.49	24
41.5	41
41.51	32
41.52	17
41.53	27
41.54	23
41.55	28
41.56	30
41.57	32
41.58	37
41.59	40
41.6	43
41.61	67
41.62	157
41.63	757
41.64	5984
41.65	30810
41.66	50177
41.67	49790
41.68	27854
41.69	5764
41.7	635
41.71	138
41.72	88
41.73	56
41.74	58
41.75	36
41.76	37
41.77	36
41.78	35
41.79	23
41.8	28
41.81	16
41.82	18
41.83	30
41.84	23
41.85	17
41.86	13
41.87	27
41.88	24
41.89	19
41.9	12

; Data for range 6
_DRIVE = COUPLED
_STEPTIME = 19.2
_STEPSIZE = 0.01
_STEPMODE = C
_START = 39.2
_THETA = 19.6
_2THETA = 39.2
_KHI = -0.162797
_PHI = 0.000039
_X = -2.007
_Y = -9.826
_Z = -0.810996
_DETECTORSLIT = out
_AUX1 = 0
_AUX2 = -2.4
_TIMESTARTED = 461.5892
_KV = 40
_MA = 40
_RANGE_WL = 1.5406
_3DPLANE = 0
_V4_PSD2THETA = 9999
_V4_PSDCHANNEL1 = 0
_V4_PSDAPERTURE = 2.057142
_V4_PSDTYPE = 5
_V4_PSDFIXED = 0
_V4_TEMPCONTROL = 0
_V4_TEMPSTAGE = 0
_V4_TEMPSENSOR = 0
_V4_TEMPERATURE = 273.15
_V4_TEMPRATE = 0
_V4_TEMPDELAY = 0
_V4_TEMPRAMPFLAG = 0
_V4_COUNTERS_MASK = 1
_V4_DRIVES_MASK = 0
_V4_ENCODERS_MASK = 0
_2THETACOUNTS = 1
; 2THETA	Cnt2_D1
39.2	14
39.21	23
39.22	23
39.23	19
39.24	19
39.25	15
39.26	22
39.27	24
39.28	15
39.29	27
39.3	17
39.31	16
39.32	15
39.33	27
39.34	16
39.35	18
39.36	15
39.37	15
39.38	15
39.39	16
39.4	20
39.41	24
39.42	16
39.43	23
39.44	26
39.45	23
39.46	11
39.47	12
39.48	24
39.49	24
39.5	17
39.51	15
39.52	27
39.53	22
39.54	15
39.55	23
39.56	25
39.57	16
39.58	23
39.59	22
39.6	25
39.61	22
39.62	27
39.63	23
39.64	22
39.65	16
39.66	23
39.67	19
39.68	29
39.69	28
39.7	27
39.71	27
39.72	26
39.73	19
39.74	28
39.75	24
39.76	34
39.77	25
39.78	27
39.79	39
39.8	37
39.81	39
39.82	45
39.83	42
39.84	36
39.85	42
39.86	40
39.87	57
39.88	47
39.89	59
39.9	41
39.91	57
39.92	74
39.93	54
39.94	46
39.95	66
39.96	54
39.97	62
39.98	60
39.99	62
40	59
40.01	72
40.02	63
40.03	49
40.04	53
40.05	45
40.06	36
40.07	35
40.08	40
40.09	30
40.1	35
40.11	32
40.12	30
40.13	32
40.14	24
40.15	27
40.16	18
40.17	23
40.18	13
40.19	26
40.2	22
40.21	22
40.22	16
40.23	16
40.24	25
40.25	27
40.26	20
40.27	24
40.28	23
40.29	22
40.3	20
40.31	18
40.32	18
40.33	19
40.34	16
40.35	19
40.36	17
40.37	19
40.38	17
40.39	15
40.4	21
40.41	21
40.42	18
40.43	23
40.44	13
40.45	22
40.46	16
40.47	13
40.48	14
40.49	17
40.5	24
40.51	13
40.52	12
40.53	14
40.54	17
40.55	11
40.56	14
40.57	19
40.58	18
40.59	19
40.6	15
40.61	15
40.62	16
40.63	26
40.64	18
40.65	20
40.66	12
40.67	25
40.68	12
40.69	18
40.7	16
40.71	12
40.72	19
40.73	19
40.74	18
40.75	17
40.76	24
40.77	16
40.78	17
40.79	15
40.8	21
40.81	13
40.82	20
40.83	19
40.84	17
40.85	13
40.86	15
40.87	14
40.88	18
40.89	16
40.9	16
40.91	14
40.92	16
40.93	12
40.94	17
40.95	17
40.96	19
40.97	19
40.98	16
40.99	18
41	20
41.01	13
41.02	13
41.03	15
41.04	13
41.05	12
41.06	18
41.07	8.000000
41.08	14
41.09	16
41.1	17
41.11	15
41.12	18
41.13	21
41.14	15
41.15	27
41.16	18
41.17	20
41.18	15
41.19	21
41.2	31
41.21	18
41.22	12
41.23	19
41.24	17
41.25	23
41.26	20
41.27	18
41.28	25
41.29	19
41.3	19
41.31	17
41.32	19
41.33	30
41.34	24
41.35	20
41.36	20
41.37	37
41.38	23
41.39	24
41.4	26
41.41	23
41.42	22
41.43	22
41.44	23
41.45	34
41.46	21
41.47	29
41.48	20
41.49	17
41.5	19
41.51	30
41.52	19
41.53	21
41.54	25
41.55	26
41.56	42
41.57	29
41.58	38
41.59	38
41.6	58
41.61	85
41.62	173
41.63	755
41.64	6318
41.65	36095
41.66	66767
41.67	68401
41.68	41659
41.69	9950
41.7	1121
41.71	190
41.72	116
41.73	94
41.74	120
41.75	119
41.76	66
41.77	44
41.78	23
41.79	36
41.8	34
41.81	30
41.82	32
41.83	28
41.84	25
41.85	19
41.86	17
41.87	26
41.88	18
41.89	30
41.9	8.000000

; Data for range 7
_DRIVE = COUPLED
_STEPTIME = 19.2
_STEPSIZE = 0.01
_STEPMODE = C
_START = 39.2
_THETA = 19.6
_2THETA = 39.2
_KHI = -0.162797
_PHI = 0.000039
_X = -2.007
_Y = -9.576
_Z = -0.810996
_DETECTORSLIT = out
_AUX1 = 0
_AUX2 = -2.4
_TIMESTARTED = 518.5605
_KV = 40
_MA = 40
_RANGE_WL = 1.5406
_3DPLANE = 0
_V4_PSD2THETA = 9999
_V4_PSDCHANNEL1 = 0
_V4_PSDAPERTURE = 2.057142
_V4_PSDTYPE = 5
_V4_PSDFIXED = 0
_V4_TEMPCONTROL = 0
_V4_TEMPSTAGE = 0
_V4_TEMPSENSOR = 0
_V4_TEMPERATURE = 273.15
_V4_TEMPRATE = 0
_V4_TEMPDELAY = 0
_V4_TEMPRAMPFLAG = 0
_V4_COUNTERS_MASK = 1
_V4_DRIVES_MASK = 0
_V4_ENCODERS_MASK = 0
_2THETACOUNTS = 1
; 2THETA	Cnt2_D1
39.2	23
39.21	15
39.22	23
39.23	19
39.24	27
39.25	23
39.26	14
39.27	18
39.28	16
39.29	17
39.3	18
39.31	22
39.32	20
39.33	14
39.34	19
39.35	18
39.36	26
39.37	18
39.38	20
39.39	31
39.4	31
39.41	26
39.42	26
39.43	21
39.44	24
39.45	18
39.46	16
39.47	34
39.48	37
39.49	23
39.5	17
39.51	28
39.52	26
39.53	20
39.54	29
39.55	30
39.56	29
39.57	29
39.58	24
39.59	23
39.6	33
39.61	30
39.62	36
39.63	27
39.64	38
39.65	41
39.66	38
39.67	49
39.68	41
39.69	55
39.7	57
39.71	50
39.72	59
39.73	59
39.74	64
39.75	84
39.76	78
39.77	73
39.78	68
39.79	74
39.8	83
39.81	94
39.82	122
39.83	109
39.84	160
39.85	195
39.86	201
39.87	233
39.88	286
39.89	325
39.9	361
39.91	385
39.92	404
39.93	397
39.94	433
39.95	450
39.96	423
39.97	428
39.98	445
39.99	401
40	372
40.01	338
40.02	301
40.03	263
40.04	258
40.05	230
40.06	220
40.07	160
40.08	164
40.09	105
40.1	109
40.11	99
40.12	87
40.13	81
40.14	54
40.15	54
40.16	37
40.17	58
40.18	48
40.19	61
40.2	36
40.21	25
40.22	35
40.23	30
40.24	30
40.25	26
40.26	31
40.27	34
40.28	29
40.29	25
40.3	25
40.31	34
40.32	24
40.33	27
40.34	25
40.35	27
40.36	26
40.37	20
40.38	24
40.39	23
40.4	28
40.41	14
40.42	24
40.43	20
40.44	24
40.45	20
40.46	32
40.47	19
40.48	20
40.49	28
40.5	17
40.51	16
40.52	18
40.53	25
40.54	23
40.55	13
40.56	16
40.57	28
40.58	23
40.59	17
40.6	19
40.61	20
40.62	14
40.63	18
40.64	25
40.65	23
40.66	24
40.67	18
40.68	15
40.69	20
40.7	15
40.71	19
40.72	18
40.73	19
40.74	16
40.75	20
40.76	14
40.77	12
40.78	17
40.79	20
40.8	19
40.81	24
40.82	9.000000
40.83	12
40.84	23
40.85	21
40.86	20
40.87	12
40.88	17
40.89	14
40.9	19
40.91	23
40.92	19
40.93	17
40.94	28
40.95	11
40.96	13
40.97	18
40.98	19
40.99	26
41	13
41.01	13
41.02	13
41.03	18
41.04	17
41.05	19
41.06	16
41.07	14
41.08	19
41.09	14
41.1	16
41.11	23
41.12	13
41.13	18
41.14	20
41.15	21
41.16	26
41.17	19
41.18	16
41.19	26
41.2	29
41.21	27
41.22	20
41.23	29
41.24	27
41.25	18
41.26	22
41.27	23
41.28	18
41.29	21
41.3	26
41.31	21
41.32	15
41.33	16
41.34	27
41.35	23
41.36	21
41.37	24
41.38	27
41.39	19
41.4	21
41.41	25
41.42	27
41.43	25
41.44	22
41.45	16
41.46	30
41.47	33
41.48	23
41.49	26
41.5	32
41.51	25
41.52	28
41.53	34
41.54	34
41.55	30
41.56	27
41.57	29
41.58	35
41.59	57
41.6	59
41.61	73
41.62	195
41.63	777
41.64	6393
41.65	35154
41.66	66527
41.67	69249
41.68	42696
41.69	10624
41.7	1266
41.71	221
41.72	124
41.73	87
41.74	109
41.75	130
41.76	141
41.77	75
41.78	35
41.79	31
41.8	28
41.81	29
41.82	23
41.83	20
41.84	29
41.85	24
41.86	15
41.87	25
41.88	16
41.89	23
41.9	24

; Data for range 8
_DRIVE = COUPLED
_STEPTIME = 19.2
_STEPSIZE = 0.01
_STEPMODE = C
_START = 39.2
_THETA = 19.6
_2THETA = 39.2
_KHI = -0.162797
_PHI = 0.000039
_X = -2.007
_Y = -9.326
_Z = -0.810996
_DETECTORSLIT = out
_AUX1 = 0
_AUX2 = -2.4
_TIMESTARTED = 575.2822
_KV = 40
_MA = 40
_RANGE_WL = 1.5406
_3DPLANE = 0
_V4_PSD2THETA = 9999
_V4_PSDCHANNEL1 = 0
_V4_PSDAPERTURE = 2.057142
_V4_PSDTYPE = 5
_V4_PSDFIXED = 0
_V4_TEMPCONTROL = 0
_V4_TEMPSTAGE = 0
_V4_TEMPSENSOR = 0
_V4_TEMPERATURE = 273.15
_V4_TEMPRATE = 0
_V4_TEMPDELAY = 0
_V4_TEMPRAMPFLAG = 0
_V4_COUNTERS_MASK = 1
_V4_DRIVES_MASK = 0
_V4_ENCODERS_MASK = 0
_2THETACOUNTS = 1
; 2THETA	Cnt2_D1
39.2	19
39.21	17
39.22	18
39.23	22
39.24	18
39.25	29
39.26	25
39.27	16
39.28	26
39.29	19
39.3	14
39.31	23
39.32	23
39.33	18
39.34	30
39.35	28
39.36	26
39.37	25
39.38	28
39.39	34
39.4	21
39.41	16
39.42	30
39.43	21
39.44	23
39.45	30
39.46	34
39.47	22
39.48	26
39.49	31
39.5	37
39.51	29
39.52	24
39.53	44
39.54	40
39.55	39
39.56	32
39.57	30
39.58	43
39.59	39
39.6	25
39.61	39
39.62	48
39.63	31
39.64	43
39.65	59
39.66	55
39.67	56
39.68	57
39.69	58
39.7	78
39.71	95
39.72	103
39.73	106
39.74	121
39.75	121
39.76	118
39.77	143
39.78	173
39.79	204
39.8	208
39.81	230
39.82	292
39.83	342
39.84	417
39.85	558
39.86	603
39.87	713
39.88	814
39.89	882
39.9	966
39.91	1065
39.92	1098
39.93	1071
39.94	1087
39.95	1095
39.96	989
39.97	907
39.98	892
39.99	814
40	730
40.01	631
40.02	580
40.03	509
40.04	416
40.05	368
40.06	306
40.07	268
40.08	235
40.09	177
40.1	169
40.11	130
40.12	122
40.13	93
40.14	89
40.15	55
40.16	92
40.17	58
40.18	63
40.19	58
40.2	49
40.21	54
40.22	58
40.23	36
40.24	40
40.25	40
40.26	50
40.27	34
40.28	36
40.29	38
40.3	35
40.31	27
40.32	28
40.33	29
40.34	21
40.35	26
40.36	37
40.37	26
40.38	28
40.39	30
40.4	26
40.41	18
40.42	28
40.43	25
40.44	14
40.45	16
40.46	20
40.47	20
40.48	10
40.49	31
40.5	17
40.51	17
40.52	21
40.53	16
40.54	32
40.55	23
40.56	15
40.57	20
40.58	16
40.59	17
40.6	20
40.61	22
40.62	19
40.63	24
40.64	14
40.65	16
40.66	19
40.67	17
40.68	17
40.69	23
40.7	21
40.71	15
40.72	20
40.73	18
40.74	15
40.75	17
40.76	17
40.77	22
40.78	16
40.79	21
40.8	22
40.81	30
40.82	22
40.83	21
40.84	13
40.85	15
40.86	16
40.87	19
40.88	15
40.89	19
40.9	19
40.91	22
40.92	23
40.93	24
40.94	13
40.95	24
40.96	16
40.97	12
40.98	23
40.99	10
41	23
41.01	24
41.02	27
41.03	14
41.04	14
41.05	16
41.06	28
41.07	20
41.08	16
41.09	17
41.1	18
41.11	24
41.12	19
41.13	19
41.14	10
41.15	25
41.16	21
41.17	17
41.18	16
41.19	19
41.2	17
41.21	19
41.22	23
41.23	26
41.24	17
41.25	18
41.26	20
41.27	29
41.28	20
41.29	26
41.3	19
41.31	18
41.32	28
41.33	30
41.34	16
41.35	18
41.36	16
41.37	20
41.38	22
41.39	25
41.4	30
41.41	24
41.42	24
41.43	23
41.44	28
41.45	31
41.46	25
41.47	31
41.48	25
41.49	31
41.5	28
41.51	37
41.52	20
41.53	25
41.54	30
41.55	32
41.56	29
41.57	37
41.58	38
41.59	40
41.6	67
41.61	88
41.62	178
41.63	688
41.64	5793
41.65	33766
41.66	66124
41.67	70280
41.68	42690
41.69	10612
41.7	1380
41.71	237
41.72	110
41.73	104
41.74	110
41.75	135
41.76	127
41.77	85
41.78	44
41.79	37
41.8	31
41.81	23
41.82	19
41.83	23
41.84	28
41.85	30
41.86	17
41.87	19
41.88	26
41.89	18
41.9	19

; Data for range 9
_DRIVE = COUPLED
_STEPTIME = 19.2
_STEPSIZE = 0.01
_STEPMODE = C
_START = 39.2
_THETA = 19.6
_2THETA = 39.2
_KHI = -0.162797
_PHI = 0.000039
_X = -2.007
_Y = -9.076
_Z = -0.810996
_DETECTORSLIT = out
_AUX1 = 0
_AUX2 = -2.4
_TIMESTARTED = 632.0663
_KV = 40
_MA = 40
_RANGE_WL = 1.5406
_3DPLANE = 0
_V4_PSD2THETA = 9999
_V4_PSDCHANNEL1 = 0
_V4_PSDAPERTURE = 2.057142
_V4_PSDTYPE = 5
_V4_PSDFIXED = 0
_V4_TEMPCONTROL = 0
_V4_TEMPSTAGE = 0
_V4_TEMPSENSOR = 0
_V4_TEMPERATURE = 273.15
_V4_TEMPRATE = 0
_V4_TEMPDELAY = 0
_V4_TEMPRAMPFLAG = 0
_V4_COUNTERS_MASK = 1
_V4_DRIVES_MASK = 0
_V4_ENCODERS_MASK = 0
_2THETACOUNTS = 1
; 2THETA	Cnt2_D1
39.2	21
39.21	23
39.22	19
39.23	24
39.24	21
39.25	23
39.26	18
39.27	22
39.28	20
39.29	19
39.3	25
39.31	25
39.32	26
39.33	24
39.34	27
39.35	33
39.36	42
39.37	21
39.38	29
39.39	28
39.4	38
39.41	24
39.42	28
39.43	33
39.44	30
39.45	26
39.46	31
39.47	35
39.48	38
39.49	36
39.5	32
39.51	32
39.52	39
39.53	48
39.54	45
39.55	35
39.56	38
39.57	32
39.58	38
39.59	35
39.6	54
39.61	49
39.62	49
39.63	65
39.64	66
39.65	75
39.66	58
39.67	65
39.68	71
39.69	76
39.7	93
39.71	129
39.72	140
39.73	154
39.74	193
39.75	194
39.76	223
39.77	221
39.78	260
39.79	329
39.8	398
39.81	466
39.82	597
39.83	710
39.84	879
39.85	1024
39.86	1057
39.87	1349
39.88	1501
39.89	1626
39.9	1750
39.91	1722
39.92	1766
39.93	1591
39.94	1546
39.95	1393
39.96	1304
39.97	1136
39.98	954
39.99	875
40	682
40.01	600
40.02	446
40.03	392
40.04	293
40.05	230
40.06	199
40.07	193
40.08	159
40.09	118
40.1	88
40.11	88
40.12	87
40.13	88
40.14	55
40.15	75
40.16	63
40.17	44
40.18	40
40.19	51
40.2	45
40.21	51
40.22	50
40.23	43
40.24	48
40.25	36
40.26	30
40.27	21
40.28	26
40.29	29
40.3	36
40.31	47
40.32	26
40.33	29
40.34	27
40.35	29
40.36	33
40.37	24
40.38	22
40.39	22
40.4	20
40.41	23
40.42	29
40.43	26
40.44	28
40.45	13
40.46	14
40.47	20
40.48	23
40.49	23
40.5	24
40.51	24
40.52	22
40.53	22
40.54	24
40.55	18
40.56	27
40.57	19
40.58	23
40.59	20
40.6	28
40.61	22
40.62	23
40.63	23
40.64	27
40.65	24
40.66	15
40.67	29
40.68	17
40.69	21
40.7	22
40.71	15
40.72	17
40.73	15
40.74	19
40.75	19
40.76	19
40.77	14
40.78	27
40.79	17
40.8	24
40.81	19
40.82	22
40.83	21
40.84	16
40.85	15
40.86	18
40.87	13
40.88	24
40.89	18
40.9	18
40.91	22
40.92	25
40.93	24
40.94	19
40.95	23
40.96	12
40.97	17
40.98	15
40.99	14
41	20
41.01	16
41.02	23
41.03	19
41.04	20
41.05	20
41.06	33
41.07	16
41.08	17
41.09	23
41.1	23
41.11	16
41.12	19
41.13	21
41.14	20
41.15	19
41.16	18
41.17	24
41.18	19
41.19	28
41.2	24
41.21	21
41.22	21
41.23	15
41.24	23
41.25	30
41.26	21
41.27	22
41.28	18
41.29	20
41.3	14
41.31	26
41.32	15
41.33	17
41.34	19
41.35	21
41.36	15
41.37	34
41.38	19
41.39	21
41.4	23
41.41	20
41.42	21
41.43	29
41.44	29
41.45	37
41.46	33
41.47	31
41.48	29
41.49	22
41.5	36
41.51	26
41.52	32
41.53	24
41.54	28
41.55	28
41.56	36
41.57	31
41.58	41
41.59	38
41.6	58
41.61	103
41.62	135
41.63	675
41.64	5650
41.65	32156
41.66	59793
41.67	66835
41.68	42940
41.69	10106
41.7	1291
41.71	211
41.72	122
41.73	88
41.74	98
41.75	135
41.76	106
41.77	67
41.78	46
41.79	37
41.8	32
41.81	25
41.82	20
41.83	32
41.84	16
41.85	30
41.86	20
41.87	26
41.88	14
41.89	16
41.9	27

; Data for range 10
_DRIVE = COUPLED
_STEPTIME = 19.2
_STEPSIZE = 0.01
_STEPMODE = C
_START = 39.2
_THETA = 19.6
_2THETA = 39.2
_KHI = -0.162797
_PHI = 0.000039
_X = -2.007
_Y = -8.826
_Z = -0.810996
_DETECTORSLIT = out
_AUX1 = 0
_AUX2 = -2.4
_TIMESTARTED = 688.8192
_KV = 40
_MA = 40
_RANGE_WL = 1.5406
_3DPLANE = 0
_V4_PSD2THETA = 9999
_V4_PSDCHANNEL1 = 0
_V4_PSDAPERTURE = 2.057142
_V4_PSDTYPE = 5
_V4_PSDFIXED = 0
_V4_TEMPCONTROL = 0
_V4_TEMPSTAGE = 0
_V4_TEMPSENSOR = 0
_V4_TEMPERATURE = 273.15
_V4_TEMPRATE = 0
_V4_TEMPDELAY = 0
_V4_TEMPRAMPFLAG = 0
_V4_COUNTERS_MASK = 1
_V4_DRIVES_MASK = 0
_V4_ENCODERS_MASK = 0
_2THETACOUNTS = 1
; 2THETA	Cnt2_D1
39.2	23
39.21	27
39.22	14
39.23	27
39.24	19
39.25	27
39.26	17
39.27	22
39.28	22
39.29	24
39.3	27
39.31	23
39.32	34
39.33	30
39.34	34
39.35	21
39.36	37
39.37	36
39.38	28
39.39	34
39.4	29
39.41	27
39.42	31
39.43	29
39.44	35
39.45	29
39.46	34
39.47	21
39.48	31
39.49	32
39.5	34
39.51	50
39.52	41
39.53	35
39.54	42
39.55	43
39.56	44
39.57	52
39.58	60
39.59	51
39.6	53
39.61	54
39.62	71
39.63	67
39.64	75
39.65	86
39.66	90
39.67	103
39.68	107
39.69	108
39.7	130
39.71	137
39.72	154
39.73	177
39.74	207
39.75	231
39.76	270
39.77	327
39.78	355
39.79	451
39.8	548
39.81	622
39.82	783
39.83	982
39.84	1148
39.85	1369
39.86	1643
39.87	1875
39.88	2013
39.89	2078
39.9	2133
39.91	2101
39.92	2052
39.93	1946
39.94	1725
39.95	1485
39.96	1279
39.97	1070
39.98	849
39.99	621
40	471
40.01	344
40.02	263
40.03	251
40.04	189
40.05	143
40.06	137
40.07	118
40.08	108
40.09	88
40.1	70
40.11	66
40.12	62
40.13	66
40.14	52
40.15	64
40.16	46
40.17	38
40.18	62
40.19	48
40.2	47
40.21	46
40.22	37
40.23	28
40.24	36
40.25	40
40.26	27
40.27	34
40.28	31
40.29	28
40.3	24
40.31	40
40.32	19
40.33	30
40.34	32
40.35	15
40.36	30
40.37	21
40.38	27
40.39	30
40.4	21
40.41	29
40.42	31
40.43	27
40.44	21
40.45	24
40.46	31
40.47	25
40.48	16
40.49	25
40.5	18
40.51	11
40.52	24
40.53	19
40.54	19
40.55	21
40.56	20
40.57	21
40.58	15
40.59	24
40.6	19
40.61	19
40.62	22
40.63	29
40.64	21
40.65	20
40.66	25
40.67	17
40.68	24
40.69	16
40.7	21
40.71	20
40.72	24
40.73	28
40.74	17
40.75	27
40.76	22
40.77	17
40.78	23
40.79	20
40.8	16
40.81	19
40.82	15
40.83	21
40.84	13
40.85	20
40.86	22
40.87	27
40.88	20
40.89	17
40.9	20
40.91	23
40.92	16
40.93	17
40.94	15
40.95	20
40.96	12
40.97	22
40.98	10
40.99	14
41	16
41.01	28
41.02	16
41.03	19
41.04	16
41.05	15
41.06	13
41.07	21
41.08	16
41.09	11
41.1	25
41.11	27
41.12	16
41.13	20
41.14	20
41.15	23
41.16	20
41.17	26
41.18	20
41.19	18
41.2	13
41.21	20
41.22	20
41.23	20
41.24	21
41.25	21
41.26	30
41.27	25
41.28	15
41.29	14
41.3	19
41.31	22
41.32	23
41.33	29
41.34	23
41.35	21
41.36	24
41.37	19
41.38	38
41.39	20
41.4	29
41.41	20
41.42	31
41.43	19
41.44	29
41.45	25
41.46	26
41.47	28
41.48	30
41.49	26
41.5	23
41.51	31
41.52	29
41.53	34
41.54	35
41.55	29
41.56	27
41.57	44
41.58	43
41.59	38
41.6	50
41.61	86
41.62	134
41.63	573
41.64	4778
41.65	27960
41.66	50281
41.67	53807
41.68	32417
41.69	7180
41.7	841
41.71	166
41.72	103
41.73	80
41.74	85
41.75	103
41.76	109
41.77	56
41.78	31
41.79	23
41.8	32
41.81	21
41.82	26
41.83	26
41.84	20
41.85	26
41.86	17
41.87	30
41.88	22
41.89	28
41.9	19

; Data for range 11
_DRIVE = COUPLED
_STEPTIME = 19.2
_STEPSIZE = 0.01
_STEPMODE = C
_START = 39.2
_THETA = 19.6
_2THETA = 39.2
_KHI = -0.162797
_PHI = 0.000039
_X = -2.007
_Y = -8.576
_Z = -0.810996
_DETECTORSLIT = out
_AUX1 = 0
_AUX2 = -2.4
_TIMESTARTED = 745.5565
_KV = 40
_MA = 40
_RANGE_WL = 1.5406
_3DPLANE = 0
_V4_PSD2THETA = 9999
_V4_PSDCHANNEL1 = 0
_V4_PSDAPERTURE = 2.057142
_V4_PSDTYPE = 5
_V4_PSDFIXED = 0
_V4_TEMPCONTROL = 0
_V4_TEMPSTAGE = 0
_V4_TEMPSENSOR = 0
_V4_TEMPERATURE = 273.15
_V4_TEMPRATE = 0
_V4_TEMPDELAY = 0
_V4_TEMPRAMPFLAG = 0
_V4_COUNTERS_MASK = 1
_V4_DRIVES_MASK = 0
_V4_ENCODERS_MASK = 0
_2THETACOUNTS = 1
; 2THETA	Cnt2_D1
39.2	30
39.21	15
39.22	28
39.23	18
39.24	18
39.25	25
39.26	29
39.27	25
39.28	22
39.29	22
39.3	22
39.31	19
39.32	24
39.33	14
39.34	28
39.35	34
39.36	26
39.37	20
39.38	20
39.39	18
39.4	35
39.41	30
39.42	28
39.43	34
39.44	30
39.45	37
39.46	32
39.47	45
39.48	37
39.49	42
39.5	40
39.51	41
39.52	36
39.53	47
39.54	50
39.55	49
39.56	41
39.57	57
39.58	53
39.59	58
39.6	54
39.61	44
39.62	56
39.63	83
39.64	77
39.65	92
39.66	93
39.67	93
39.68	98
39.69	136
39.7	145
39.71	116
39.72	174
39.73	199
39.74	241
39.75	266
39.76	297
39.77	335
39.78	382
39.79	503
39.8	581
39.81	731
39.82	926
39.83	1151
39.84	1417
39.85	1699
39.86	2007
39.87	2311
39.88	2559
39.89	2656
39.9	2609
39.91	2603
39.92	2460
39.93	2131
39.94	1851
39.95	1566
39.96	1272
39.97	961
39.98	709
39.99	514
40	399
40.01	293
40.02	199
40.03	179
40.04	121
40.05	144
40.06	118
40.07	111
40.08	95
40.09	88
40.1	79
40.11	57
40.12	57
40.13	62
40.14	50
40.15	52
40.16	62
40.17	33
40.18	35
40.19	25
40.2	32
40.21	32
40.22	27
40.23	39
40.24	32
40.25	27
40.26	30
40.27	27
40.28	39
40.29	36
40.3	24
40.31	36
40.32	27
40.33	21
40.34	29
40.35	24
40.36	23
40.37	22
40.38	30
40.39	15
40.4	22
40.41	24
40.42	24
40.43	13
40.44	22
40.45	24
40.46	25
40.47	24
40.48	20
40.49	23
40.5	33
40.51	27
40.52	15
40.53	22
40.54	18
40.55	16
40.56	22
40.57	21
40.58	23
40.59	23
40.6	12
40.61	24
40.62	21
40.63	20
40.64	24
40.65	11
40.66	18
40.67	19
40.68	18
40.69	21
40.7	29
40.71	13
40.72	14
40.73	18
40.74	19
40.75	18
40.76	19
40.77	15
40.78	22
40.79	29
40.8	17
40.81	14
40.82	24
40.83	17
40.84	21
40.85	14
40.86	14
40.87	14
40.88	22
40.89	19
40.9	22
40.91	18
40.92	15
40.93	22
40.94	20
40.95	21
40.96	14
40.97	24
40.98	17
40.99	29
41	21
41.01	21
41.02	21
41.03	19
41.04	19
41.05	17
41.06	22
41.07	19
41.08	13
41.09	16
41.1	12
41.11	21
41.12	25
41.13	17
41.14	14
41.15	18
41.16	14
41.17	21
41.18	12
41.19	10
41.2	23
41.21	24
41.22	22
41.23	16
41.24	19
41.25	21
41.26	16
41.27	26
41.28	35
41.29	23
41.3	27
41.31	24
41.32	15
41.33	26
41.34	20
41.35	25
41.36	26
41.37	20
41.38	22
41.39	16
41.4	17
41.41	30
41.42	33
41.43	30
41.44	31
41.45	24
41.46	28
41.47	32
41.48	27
41.49	29
41.5	25
41.51	26
41.52	28
41.53	29
41.54	22
41.55	23
41.56	32
41.57	31
41.58	37
41.59	31
41.6	52
41.61	76
41.62	152
41.63	668
41.64	5510
41.65	27315
41.66	44680
41.67	48024
41.68	28138
41.69	6117
41.7	826
41.71	161
41.72	100
41.73	73
41.74	85
41.75	85
41.76	80
41.77	55
41.78	36
41.79	31
41.8	29
41.81	17
41.82	26
41.83	23
41.84	25
41.85	25
41.86	33
41.87	23
41.88	15
41.89	23
41.9	17

; Data for range 12
_DRIVE = COUPLED
_STEPTIME = 19.2
_STEPSIZE = 0.01
_STEPMODE = C
_START = 39.2
_THETA = 19.6
_2THETA = 39.2
_KHI = -0.162797
_PHI = 0.000039
_X = -2.007
_Y = -8.326
_Z = -0.810996
_DETECTORSLIT = out
_AUX1 = 0
_AUX2 = -2.4
_TIMESTARTED = 802.3406
_KV = 40
_MA = 40
_RANGE_WL = 1.5406
_3DPLANE = 0
_V4_PSD2THETA = 9999
_V4_PSDCHANNEL1 = 0
_V4_PSDAPERTURE = 2.057142
_V4_PSDTYPE = 5
_V4_PSDFIXED = 0
_V4_TEMPCONTROL = 0
_V4_TEMPSTAGE = 0
_V4_TEMPSENSOR = 0
_V4_TEMPERATURE = 273.15
_V4_TEMPRATE = 0
_V4_TEMPDELAY = 0
_V4_TEMPRAMPFLAG = 0
_V4_COUNTERS_MASK = 1
_V4_DRIVES_MASK = 0
_V4_ENCODERS_MASK = 0
_2THETACOUNTS = 1
; 2THETA	Cnt2_D1
39.2	24
39.21	23
39.22	23
39.23	26
39.24	25
39.25	16
39.26	22
39.27	25
39.28	31
39.29	23
39.3	29
39.31	20
39.32	27
39.33	26
39.34	21
39.35	30
39.36	27
39.37	24
39.38	28
39.39	30
39.4	20
39.41	23
39.42	29
39.43	27
39.44	33
39.45	41
39.46	34
39.47	44
39.48	42
39.49	36
39.5	35
39.51	52
39.52	42
39.53	56
39.54	55
39.55	53
39.56	46
39.57	58
39.58	53
39.59	53
39.6	53
39.61	47
39.62	67
39.63	64
39.64	77
39.65	100
39.66	87
39.67	120
39.68	114
39.69	138
39.7	127
39.71	157
39.72	177
39.73	225
39.74	227
39.75	276
39.76	341
39.77	372
39.78	404
39.79	500
39.8	619
39.81	787
39.82	1061
39.83	1277
39.84	1536
39.85	1894
39.86	2221
39.87	2447
39.88	2602
39.89	2701
39.9	2801
39.91	2639
39.92	2474
39.93	2173
39.94	1979
39.95	1550
39.96	1113
39.97	872
39.98	565
39.99	458
40	303
40.01	251
40.02	181
40.03	142
40.04	148
40.05	136
40.06	128
40.07	109
40.08	79
40.09	82
40.1	78
40.11	63
40.12	53
40.13	50
40.14	59
40.15	41
40.16	58
40.17	50
40.18	34
40.19	42
40.2	41
40.21	32
40.22	36
40.23	25
40.24	29
40.25	34
40.26	28
40.27	29
40.28	29
40.29	26
40.3	28
40.31	27
40.32	27
40.33	24
40.34	18
40.35	22
40.36	24
40.37	27
40.38	24
40.39	22
40.4	28
40.41	21
40.42	21
40.43	26
40.44	20
40.45	25
40.46	24
40.47	19
40.48	27
40.49	22
40.5	29
40.51	20
40.52	26
40.53	24
40.54	17
40.55	21
40.56	20
40.57	26
40.58	16
40.59	23
40.6	20
40.61	17
40.62	27
40.63	27
40.64	25
40.65	16
40.66	19
40.67	24
40.68	20
40.69	24
40.7	18
40.71	15
40.72	28
40.73	20
40.74	17
40.75	17
40.76	17
40.77	10
40.78	12
40.79	15
40.8	25
40.81	18
40.82	14
40.83	15
40.84	26
40.85	14
40.86	22
40.87	16
40.88	24
40.89	16
40.9	14
40.91	19
40.92	15
40.93	12
40.94	16
40.95	19
40.96	22
40.97	15
40.98	12
40.99	20
41	24
41.01	18
41.02	18
41.03	20
41.04	14
41.05	22
41.06	13
41.07	14
41.08	14
41.09	24
41.1	16
41.11	26
41.12	19
41.13	12
41.14	19
41.15	15
41.16	21
41.17	22
41.18	15
41.19	11
41.2	33
41.21	18
41.22	19
41.23	25
41.24	23
41.25	19
41.26	20
41.27	24
41.28	19
41.29	25
41.3	20
41.31	22
41.32	31
41.33	22
41.34	21
41.35	30
41.36	29
41.37	17
41.38	26
41.39	22
41.4	27
41.41	21
41.42	23
41.43	21
41.44	31
41.45	34
41.46	25
41.47	31
41.48	21
41.49	18
41.5	27
41.51	19
41.52	29
41.53	26
41.54	27
41.55	29
41.56	26
41.57	34
41.58	44
41.59	42
41.6	45
41.61	76
41.62	134
41.63	589
41.64	5131
41.65	25935
41.66	46028
41.67	48718
41.68	27099
41.69	6406
41.7	726
41.71	135
41.72	85
41.73	69
41.74	81
41.75	112
41.76	94
41.77	65
41.78	46
41.79	30
41.8	18
41.81	26
41.82	24
41.83	35
41.84	15
41.85	23
41.86	15
41.87	27
41.88	22
41.89	19
41.9	23

; Data for range 13
_DRIVE = COUPLED
_STEPTIME = 19.2
_STEPSIZE = 0.01
_STEPMODE = C
_START = 39.2
_THETA = 19.6
_2THETA = 39.2
_KHI = -0.162797
_PHI = 0.000039
_X = -2.007
_Y = -8.076
_Z = -0.810996
_DETECTORSLIT = out
_AUX1 = 0
_AUX2 = -2.4
_TIMESTARTED = 859.0779
_KV = 40
_MA = 40
_RANGE_WL = 1.5406
_3DPLANE = 0
_V4_PSD2THETA = 9999
_V4_PSDCHANNEL1 = 0
_V4_PSDAPERTURE = 2.057142
_V4_PSDTYPE = 5
_V4_PSDFIXED = 0
_V4_TEMPCONTROL = 0
_V4_TEMPSTAGE = 0
_V4_TEMPSENSOR = 0
_V4_TEMPERATURE = 273.15
_V4_TEMPRATE = 0
_V4_TEMPDELAY = 0
_V4_TEMPRAMPFLAG = 0
_V4_COUNTERS_MASK = 1
_V4_DRIVES_MASK = 0
_V4_ENCODERS_MASK = 0
_2THETACOUNTS = 1
; 2THETA	Cnt2_D1
39.2	24
39.21	27
39.22	22
39.23	25
39.24	25
39.25	22
39.26	29
39.27	28
39.28	22
39.29	23
39.3	25
39.31	28
39.32	18
39.33	27
39.34	17
39.35	27
39.36	26
39.37	31
39.38	31
39.39	32
39.4	26
39.41	33
39.42	31
39.43	32
39.44	34
39.45	29
39.46	26
39.47	21
39.48	33
39.49	39
39.5	44
39.51	35
39.52	45
39.53	41
39.54	41
39.55	43
39.56	53
39.57	61
39.58	59
39.59	48
39.6	61
39.61	56
39.62	53
39.63	84
39.64	71
39.65	75
39.66	100
39.67	79
39.68	121
39.69	104
39.7	127
39.71	157
39.72	175
39.73	208
39.74	225
39.75	256
39.76	274
39.77	381
39.78	450
39.79	454
39.8	638
39.81	831
39.82	1079
39.83	1410
39.84	1621
39.85	1984
39.86	2348
39.87	2532
39.88	2946
39.89	3023
39.9	3012
39.91	2994
39.92	2754
39.93	2226
39.94	2023
39.95	1611
39.96	1189
[...]
40.51	12
40.52	23
40.53	25
40.54	20
40.55	17
40.56	21
40.57	21
40.58	15
40.59	14
40.6	18
40.61	11
40.62	15
40.63	14
40.64	16
40.65	13
40.66	23
40.67	20
40.68	26
40.69	13
40.7	12
40.71	21
40.72	15
40.73	20
40.74	17
40.75	18
40.76	20
40.77	19
40.78	22
40.79	20
40.8	14
40.81	17
40.82	14
40.83	15
40.84	17
40.85	23
40.86	19
40.87	16
40.88	13
40.89	20
40.9	15
40.91	15
40.92	18
40.93	22
40.94	22
40.95	20
40.96	9.000000
40.97	17
40.98	17
40.99	8.000000
41	10
41.01	16
41.02	13
41.03	14
41.04	23
41.05	23
41.06	14
41.07	18
41.08	14
41.09	15
41.1	17
41.11	23
41.12	14
41.13	19
41.14	18
41.15	18
41.16	16
41.17	16
41.18	12
41.19	22
41.2	11
41.21	7.000000
41.22	12
41.23	28
41.24	14
41.25	21
41.26	23
41.27	23
41.28	25
41.29	19
41.3	21
41.31	20
41.32	15
41.33	21
41.34	27
41.35	27
41.36	18
41.37	16
41.38	21
41.39	15
41.4	26
41.41	26
41.42	27
41.43	19
41.44	29
41.45	30
41.46	22
41.47	29
41.48	22
41.49	29
41.5	36
41.51	13
41.52	27
41.53	33
41.54	36
41.55	30
41.56	24
41.57	24
41.58	24
41.59	30
41.6	37
41.61	41
41.62	51
41.63	95
41.64	284
41.65	1742
41.66	13887
41.67	41588
41.68	52095
41.69	42937
41.7	14659
41.71	2342
41.72	274
41.73	118
41.74	76
41.75	72
41.76	92
41.77	95
41.78	71
41.79	51
41.8	30
41.81	27
41.82	21
41.83	17
41.84	18
41.85	12
41.86	23
41.87	19
41.88	23
41.89	16
41.9	28

; Data for range 76
_DRIVE = COUPLED
_STEPTIME = 19.2
_STEPSIZE = 0.01
_STEPMODE = C
_START = 39.2
_THETA = 19.6
_2THETA = 39.2
_KHI = -0.162797
_PHI = 0.000039
_X = -2.007
_Y = 7.674
_Z = -0.810996
_DETECTORSLIT = out
_AUX1 = 0
_AUX2 = -2.4
_TIMESTARTED = 4435.075
_KV = 40
_MA = 40
_RANGE_WL = 1.5406
_3DPLANE = 0
_V4_PSD2THETA = 9999
_V4_PSDCHANNEL1 = 0
_V4_PSDAPERTURE = 2.057142
_V4_PSDTYPE = 5
_V4_PSDFIXED = 0
_V4_TEMPCONTROL = 0
_V4_TEMPSTAGE = 0
_V4_TEMPSENSOR = 0
_V4_TEMPERATURE = 273.15
_V4_TEMPRATE = 0
_V4_TEMPDELAY = 0
_V4_TEMPRAMPFLAG = 0
_V4_COUNTERS_MASK = 1
_V4_DRIVES_MASK = 0
_V4_ENCODERS_MASK = 0
_2THETACOUNTS = 1
; 2THETA	Cnt2_D1
39.2	25
39.21	28
39.22	24
39.23	21
39.24	32
39.25	21
39.26	21
39.27	21
39.28	27
39.29	25
39.3	22
39.31	28
39.32	16
39.33	26
39.34	16
39.35	17
39.36	23
39.37	21
39.38	31
39.39	25
39.4	30
39.41	13
39.42	21
39.43	20
39.44	23
39.45	26
39.46	27
39.47	24
39.48	21
39.49	25
39.5	25
39.51	20
39.52	23
39.53	30
39.54	23
39.55	31
39.56	38
39.57	33
39.58	26
39.59	29
39.6	26
39.61	22
39.62	35
39.63	29
39.64	38
39.65	27
39.66	21
39.67	36
39.68	43
39.69	29
39.7	40
39.71	45
39.72	47
39.73	47
39.74	43
39.75	63
39.76	70
39.77	87
39.78	80
39.79	101
39.8	89
39.81	101
39.82	115
39.83	138
39.84	189
39.85	206
39.86	292
39.87	386
39.88	499
39.89	579
39.9	649
39.91	711
39.92	810
39.93	835
39.94	869
39.95	897
39.96	876
39.97	811
39.98	727
39.99	687
40	569
40.01	504
40.02	402
40.03	363
40.04	273
40.05	262
40.06	193
40.07	156
40.08	150
40.09	115
40.1	110
40.11	102
40.12	89
40.13	90
40.14	83
40.15	65
40.16	66
40.17	53
40.18	55
40.19	45
40.2	48
40.21	50
40.22	47
40.23	34
40.24	39
40.25	27
40.26	35
40.27	25
40.28	32
40.29	27
40.3	30
40.31	33
40.32	23
40.33	19
40.34	27
40.35	23
40.36	20
40.37	24
40.38	20
40.39	18
40.4	11
40.41	20
40.42	28
40.43	27
40.44	18
40.45	21
40.46	21
40.47	23
40.48	17
40.49	13
40.5	27
40.51	20
40.52	15
40.53	19
40.54	9.000000
40.55	14
40.56	14
40.57	17
40.58	14
40.59	19
40.6	15
40.61	10
40.62	24
40.63	13
40.64	17
40.65	17
40.66	19
40.67	15
40.68	20
40.69	20
40.7	32
40.71	17
40.72	15
40.73	15
40.74	27
40.75	19
40.76	13
40.77	21
40.78	17
40.79	16
40.8	17
40.81	16
40.82	14
40.83	20
40.84	16
40.85	14
40.86	16
40.87	11
40.88	18
40.89	16
40.9	15
40.91	12
40.92	19
40.93	18
40.94	17
40.95	19
40.96	17
40.97	21
40.98	17
40.99	13
41	20
41.01	17
41.02	16
41.03	25
41.04	17
41.05	12
41.06	17
41.07	22
41.08	21
41.09	14
41.1	13
41.11	19
41.12	17
41.13	19
41.14	15
41.15	14
41.16	15
41.17	15
41.18	17
41.19	15
41.2	17
41.21	20
41.22	17
41.23	17
41.24	18
41.25	29
41.26	17
41.27	14
41.28	14
41.29	20
41.3	13
41.31	23
41.32	23
41.33	15
41.34	17
41.35	17
41.36	9.000000
41.37	20
41.38	23
41.39	25
41.4	29
41.41	28
41.42	19
41.43	22
41.44	22
41.45	25
41.46	26
41.47	27
41.48	24
41.49	34
41.5	25
41.51	32
41.52	24
41.53	25
41.54	27
41.55	20
41.56	24
41.57	35
41.58	28
41.59	26
41.6	44
41.61	39
41.62	60
41.63	87
41.64	232
41.65	1726
41.66	14427
41.67	40535
41.68	52127
41.69	39837
41.7	13321
41.71	1878
41.72	264
41.73	74
41.74	77
41.75	81
41.76	83
41.77	89
41.78	79
41.79	41
41.8	28
41.81	23
41.82	20
41.83	21
41.84	22
41.85	16
41.86	18
41.87	13
41.88	15
41.89	25
41.9	14

; Data for range 77
_DRIVE = COUPLED
_STEPTIME = 19.2
_STEPSIZE = 0.01
_STEPMODE = C
_START = 39.2
_THETA = 19.6
_2THETA = 39.2
_KHI = -0.162797
_PHI = 0.000039
_X = -2.007
_Y = 7.924
_Z = -0.810996
_DETECTORSLIT = out
_AUX1 = 0
_AUX2 = -2.4
_TIMESTARTED = 4491.812
_KV = 40
_MA = 40
_RANGE_WL = 1.5406
_3DPLANE = 0
_V4_PSD2THETA = 9999
_V4_PSDCHANNEL1 = 0
_V4_PSDAPERTURE = 2.057142
_V4_PSDTYPE = 5
_V4_PSDFIXED = 0
_V4_TEMPCONTROL = 0
_V4_TEMPSTAGE = 0
_V4_TEMPSENSOR = 0
_V4_TEMPERATURE = 273.15
_V4_TEMPRATE = 0
_V4_TEMPDELAY = 0
_V4_TEMPRAMPFLAG = 0
_V4_COUNTERS_MASK = 1
_V4_DRIVES_MASK = 0
_V4_ENCODERS_MASK = 0
_2THETACOUNTS = 1
; 2THETA	Cnt2_D1
39.2	21
39.21	16
39.22	29
39.23	17
39.24	17
39.25	24
39.26	19
39.27	22
39.28	16
39.29	20
39.3	13
39.31	18
39.32	15
39.33	17
39.34	14
39.35	13
39.36	25
39.37	21
39.38	15
39.39	14
39.4	30
39.41	14
39.42	25
39.43	18
39.44	24
39.45	16
39.46	29
39.47	23
39.48	19
39.49	19
39.5	23
39.51	15
39.52	21
39.53	21
39.54	16
39.55	31
39.56	27
39.57	29
39.58	21
39.59	31
39.6	25
39.61	31
39.62	16
39.63	32
39.64	30
39.65	29
39.66	34
39.67	34
39.68	26
39.69	35
39.7	36
39.71	40
39.72	33
39.73	52
39.74	47
39.75	55
39.76	62
39.77	51
39.78	72
39.79	80
39.8	81
39.81	87
39.82	118
39.83	109
39.84	147
39.85	186
39.86	196
39.87	324
39.88	362
39.89	435
39.9	517
39.91	653
39.92	694
39.93	772
39.94	760
39.95	757
39.96	839
39.97	729
39.98	714
39.99	647
40	556
40.01	503
40.02	408
40.03	348
40.04	307
40.05	220
40.06	220
40.07	178
40.08	150
40.09	118
40.1	127
40.11	113
40.12	90
40.13	88
40.14	69
40.15	62
40.16	68
40.17	53
40.18	71
40.19	47
40.2	50
40.21	41
40.22	33
40.23	40
40.24	26
40.25	21
40.26	38
40.27	36
40.28	34
40.29	27
40.3	23
40.31	29
40.32	20
40.33	25
40.34	34
40.35	25
40.36	18
40.37	22
40.38	30
40.39	21
40.4	27
40.41	22
40.42	25
40.43	20
40.44	19
40.45	23
40.46	20
40.47	19
40.48	20
40.49	27
40.5	13
40.51	17
40.52	26
40.53	22
40.54	13
40.55	17
40.56	16
40.57	16
40.58	16
40.59	18
40.6	16
40.61	19
40.62	11
40.63	16
40.64	19
40.65	22
40.66	15
40.67	21
40.68	16
40.69	15
40.7	27
40.71	13
40.72	22
40.73	14
40.74	13
40.75	17
40.76	18
40.77	7.000000
40.78	12
40.79	16
40.8	16
40.81	19
40.82	18
40.83	10
40.84	19
40.85	9.000000
40.86	11
40.87	13
40.88	10
40.89	23
40.9	15
40.91	11
40.92	15
40.93	10
40.94	17
40.95	18
40.96	19
40.97	11
40.98	16
40.99	14
41	23
41.01	18
41.02	19
41.03	14
41.04	18
41.05	15
41.06	16
41.07	21
41.08	15
41.09	19
41.1	12
41.11	18
41.12	17
41.13	15
41.14	14
41.15	26
41.16	17
41.17	30
41.18	16
41.19	14
41.2	28
41.21	16
41.22	19
41.23	17
41.24	17
41.25	19
41.26	18
41.27	12
41.28	17
41.29	15
41.3	19
41.31	16
41.32	16
41.33	8.000000
41.34	31
41.35	18
41.36	22
41.37	17
41.38	21
41.39	25
41.4	23
41.41	14
41.42	20
41.43	22
41.44	25
41.45	22
41.46	35
41.47	27
41.48	22
41.49	36
41.5	30
41.51	27
41.52	22
41.53	28
41.54	32
41.55	18
41.56	26
41.57	31
41.58	33
41.59	33
41.6	35
41.61	41
41.62	65
41.63	100
41.64	261
41.65	1587
41.66	13603
41.67	40293
41.68	52545
41.69	41870
41.7	14385
41.71	2085
41.72	258
41.73	89
41.74	74
41.75	64
41.76	99
41.77	121
41.78	62
41.79	46
41.8	36
41.81	16
41.82	27
41.83	22
41.84	20
41.85	17
41.86	26
41.87	27
41.88	24
41.89	19
41.9	15

; Data for range 78
_DRIVE = COUPLED
_STEPTIME = 19.2
_STEPSIZE = 0.01
_STEPMODE = C
_START = 39.2
_THETA = 19.6
_2THETA = 39.2
_KHI = -0.162797
_PHI = 0.000039
_X = -2.007
_Y = 8.174
_Z = -0.810996
_DETECTORSLIT = out
_AUX1 = 0
_AUX2 = -2.4
_TIMESTARTED = 4548.565
_KV = 40
_MA = 40
_RANGE_WL = 1.5406
_3DPLANE = 0
_V4_PSD2THETA = 9999
_V4_PSDCHANNEL1 = 0
_V4_PSDAPERTURE = 2.057142
_V4_PSDTYPE = 5
_V4_PSDFIXED = 0
_V4_TEMPCONTROL = 0
_V4_TEMPSTAGE = 0
_V4_TEMPSENSOR = 0
_V4_TEMPERATURE = 273.15
_V4_TEMPRATE = 0
_V4_TEMPDELAY = 0
_V4_TEMPRAMPFLAG = 0
_V4_COUNTERS_MASK = 1
_V4_DRIVES_MASK = 0
_V4_ENCODERS_MASK = 0
_2THETACOUNTS = 1
; 2THETA	Cnt2_D1
39.2	16
39.21	21
39.22	21
39.23	16
39.24	18
39.25	25
39.26	26
39.27	18
39.28	15
39.29	13
39.3	17
39.31	27
39.32	25
39.33	12
39.34	13
39.35	23
39.36	20
39.37	18
39.38	12
39.39	16
39.4	23
39.41	21
39.42	24
39.43	20
39.44	32
39.45	20
39.46	23
39.47	19
39.48	20
39.49	25
39.5	20
39.51	18
39.52	14
39.53	23
39.54	19
39.55	11
39.56	25
39.57	21
39.58	35
39.59	27
39.6	21
39.61	20
39.62	30
39.63	25
39.64	29
39.65	25
39.66	32
39.67	25
39.68	40
39.69	37
39.7	34
39.71	49
39.72	41
39.73	42
39.74	47
39.75	46
39.76	57
39.77	52
39.78	51
39.79	73
39.8	73
39.81	62
39.82	89
39.83	94
39.84	120
39.85	122
39.86	194
39.87	221
39.88	219
39.89	290
39.9	406
39.91	417
39.92	472
39.93	513
39.94	577
39.95	656
39.96	610
39.97	599
39.98	595
39.99	554
40	534
40.01	516
40.02	451
40.03	389
40.04	323
40.05	308
40.06	252
40.07	214
40.08	180
40.09	154
40.1	135
40.11	115
40.12	119
40.13	107
40.14	98
40.15	89
40.16	81
40.17	85
40.18	64
40.19	61
40.2	51
40.21	45
40.22	49
40.23	43
40.24	52
40.25	39
40.26	44
40.27	31
40.28	36
40.29	43
40.3	26
40.31	16
40.32	28
40.33	34
40.34	27
40.35	23
40.36	26
40.37	33
40.38	25
40.39	21
40.4	24
40.41	13
40.42	22
40.43	20
40.44	20
40.45	20
40.46	24
40.47	26
40.48	19
40.49	16
40.5	22
40.51	16
40.52	21
40.53	19
40.54	20
40.55	14
40.56	19
40.57	22
40.58	25
40.59	10
40.6	18
40.61	15
40.62	18
40.63	20
40.64	25
40.65	22
40.66	17
40.67	17
40.68	19
40.69	20
40.7	22
40.71	16
40.72	15
40.73	18
40.74	12
40.75	20
40.76	20
40.77	19
40.78	15
40.79	21
40.8	21
40.81	19
40.82	11
40.83	8.000000
40.84	15
40.85	19
40.86	17
40.87	13
40.88	21
40.89	17
40.9	19
40.91	13
40.92	19
40.93	19
40.94	15
40.95	19
40.96	14
40.97	15
40.98	14
40.99	15
41	23
41.01	13
41.02	24
41.03	14
41.04	20
41.05	18
41.06	27
41.07	14
41.08	15
41.09	18
41.1	12
41.11	20
41.12	13
41.13	20
41.14	11
41.15	27
41.16	20
41.17	19
41.18	15
41.19	14
41.2	17
41.21	20
41.22	25
41.23	18
41.24	23
41.25	22
41.26	20
41.27	17
41.28	19
41.29	21
41.3	24
41.31	22
41.32	23
41.33	17
41.34	16
41.35	37
41.36	16
41.37	29
41.38	25
41.39	18
41.4	22
41.41	17
41.42	22
41.43	35
41.44	16
41.45	21
41.46	28
41.47	25
41.48	18
41.49	24
41.5	24
41.51	21
41.52	24
41.53	20
41.54	24
41.55	30
41.56	32
41.57	25
41.58	38
41.59	27
41.6	55
41.61	69
41.62	71
41.63	89
41.64	293
41.65	1776
41.66	14556
41.67	42565
41.68	56640
41.69	45264
41.7	14926
41.71	2264
41.72	300
41.73	101
41.74	73
41.75	76
41.76	89
41.77	111
41.78	73
41.79	42
41.8	31
41.81	38
41.82	21
41.83	23
41.84	25
41.85	21
41.86	23
41.87	22
41.88	16
41.89	19
41.9	25

; Data for range 79
_DRIVE = COUPLED
_STEPTIME = 19.2
_STEPSIZE = 0.01
_STEPMODE = C
_START = 39.2
_THETA = 19.6
_2THETA = 39.2
_KHI = -0.162797
_PHI = 0.000039
_X = -2.007
_Y = 8.424
_Z = -0.810996
_DETECTORSLIT = out
_AUX1 = 0
_AUX2 = -2.4
_TIMESTARTED = 4605.614
_KV = 40
_MA = 40
_RANGE_WL = 1.5406
_3DPLANE = 0
_V4_PSD2THETA = 9999
_V4_PSDCHANNEL1 = 0
_V4_PSDAPERTURE = 2.057142
_V4_PSDTYPE = 5
_V4_PSDFIXED = 0
_V4_TEMPCONTROL = 0
_V4_TEMPSTAGE = 0
_V4_TEMPSENSOR = 0
_V4_TEMPERATURE = 273.15
_V4_TEMPRATE = 0
_V4_TEMPDELAY = 0
_V4_TEMPRAMPFLAG = 0
_V4_COUNTERS_MASK = 1
_V4_DRIVES_MASK = 0
_V4_ENCODERS_MASK = 0
_2THETACOUNTS = 1
; 2THETA	Cnt2_D1
39.2	15
39.21	15
39.22	21
39.23	16
39.24	13
39.25	22
39.26	27
39.27	19
39.28	20
39.29	12
39.3	25
39.31	19
39.32	19
39.33	16
39.34	12
39.35	17
39.36	21
39.37	23
39.38	22
39.39	19
39.4	12
39.41	18
39.42	17
39.43	30
39.44	12
39.45	16
39.46	21
39.47	18
39.48	16
39.49	12
39.5	21
39.51	24
39.52	21
39.53	18
39.54	20
39.55	21
39.56	18
39.57	20
39.58	22
39.59	16
39.6	23
39.61	23
39.62	24
39.63	32
39.64	31
39.65	24
39.66	33
39.67	28
39.68	16
39.69	32
39.7	42
39.71	36
39.72	27
39.73	26
39.74	30
39.75	36
39.76	38
39.77	43
39.78	40
39.79	65
39.8	40
39.81	52
39.82	70
39.83	65
39.84	87
39.85	82
39.86	103
39.87	111
39.88	119
39.89	165
39.9	175
39.91	235
39.92	254
39.93	288
39.94	314
39.95	341
39.96	344
39.97	347
39.98	399
39.99	424
40	361
40.01	344
40.02	351
40.03	299
40.04	289
40.05	266
40.06	225
40.07	223
40.08	180
40.09	168
40.1	131
40.11	139
40.12	104
40.13	98
40.14	83
40.15	71
40.16	60
40.17	61
40.18	56
40.19	65
40.2	56
40.21	65
40.22	47
40.23	43
40.24	43
40.25	38
40.26	33
40.27	30
40.28	32
40.29	32
40.3	32
40.31	34
40.32	32
40.33	22
40.34	32
40.35	22
40.36	31
40.37	19
40.38	24
40.39	17
40.4	12
40.41	22
40.42	22
40.43	21
40.44	30
40.45	25
40.46	30
40.47	25
40.48	16
40.49	20
40.5	12
40.51	20
40.52	25
40.53	24
40.54	15
40.55	26
40.56	20
40.57	21
40.58	15
40.59	20
40.6	19
40.61	17
40.62	14
40.63	12
40.64	21
40.65	22
40.66	8.000000
40.67	20
40.68	24
40.69	15
40.7	14
40.71	17
40.72	17
40.73	23
40.74	20
40.75	11
40.76	18
40.77	17
40.78	16
40.79	21
40.8	14
40.81	16
40.82	17
40.83	18
40.84	16
40.85	19
40.86	5.000000
40.87	14
40.88	15
40.89	16
40.9	15
40.91	11
40.92	19
40.93	16
40.94	11
40.95	16
40.96	19
40.97	11
40.98	18
40.99	12
41	12
41.01	19
41.02	21
41.03	11
41.04	17
41.05	18
41.06	21
41.07	18
41.08	19
41.09	19
41.1	18
41.11	22
41.12	20
41.13	17
41.14	28
41.15	12
41.16	20
41.17	23
41.18	24
41.19	19
41.2	18
41.21	14
41.22	12
41.23	18
41.24	18
41.25	14
41.26	23
41.27	22
41.28	13
41.29	20
41.3	17
41.31	23
41.32	18
41.33	22
41.34	17
41.35	13
41.36	16
41.37	21
41.38	25
41.39	24
41.4	23
41.41	27
41.42	16
41.43	28
41.44	21
41.45	32
41.46	22
41.47	24
41.48	22
41.49	28
41.5	52
41.51	25
41.52	27
41.53	22
41.54	14
41.55	22
41.56	24
41.57	32
41.58	28
41.59	30
41.6	50
41.61	125
41.62	201
41.63	307
41.64	453
41.65	1804
41.66	14391
41.67	44184
41.68	57351
41.69	46848
41.7	16439
41.71	2403
41.72	309
41.73	100
41.74	78
41.75	79
41.76	90
41.77	100
41.78	69
41.79	54
41.8	30
41.81	31
41.82	28
41.83	24
41.84	26
41.85	34
41.86	23
41.87	25
41.88	17
41.89	25
41.9	26

; Data for range 80
_DRIVE = COUPLED
_STEPTIME = 19.2
_STEPSIZE = 0.01
_STEPMODE = C
_START = 39.2
_THETA = 19.6
_2THETA = 39.2
_KHI = -0.162797
_PHI = 0.000039
_X = -2.007
_Y = 8.674
_Z = -0.810996
_DETECTORSLIT = out
_AUX1 = 0
_AUX2 = -2.4
_TIMESTARTED = 4662.445
_KV = 40
_MA = 40
_RANGE_WL = 1.5406
_3DPLANE = 0
_V4_PSD2THETA = 9999
_V4_PSDCHANNEL1 = 0
_V4_PSDAPERTURE = 2.057142
_V4_PSDTYPE = 5
_V4_PSDFIXED = 0
_V4_TEMPCONTROL = 0
_V4_TEMPSTAGE = 0
_V4_TEMPSENSOR = 0
_V4_TEMPERATURE = 273.15
_V4_TEMPRATE = 0
_V4_TEMPDELAY = 0
_V4_TEMPRAMPFLAG = 0
_V4_COUNTERS_MASK = 1
_V4_DRIVES_MASK = 0
_V4_ENCODERS_MASK = 0
_2THETACOUNTS = 1
; 2THETA	Cnt2_D1
39.2	18
39.21	25
39.22	16
39.23	13
39.24	25
39.25	10
39.26	14
39.27	20
39.28	20
39.29	24
39.3	11
39.31	19
39.32	11
39.33	12
39.34	22
39.35	21
39.36	25
39.37	17
39.38	19
39.39	17
39.4	19
39.41	11
39.42	17
39.43	12
39.44	21
39.45	28
39.46	13
39.47	15
39.48	19
39.49	27
39.5	23
39.51	19
39.52	16
39.53	9.000000
39.54	17
39.55	17
39.56	18
39.57	19
39.58	17
39.59	27
39.6	22
39.61	20
39.62	17
39.63	24
39.64	15
39.65	14
39.66	31
39.67	26
39.68	23
39.69	24
39.7	31
39.71	24
39.72	22
39.73	35
39.74	28
39.75	32
39.76	31
39.77	22
39.78	29
39.79	48
39.8	33
39.81	36
39.82	43
39.83	36
39.84	36
39.85	42
39.86	49
39.87	48
39.88	49
39.89	71
39.9	80
39.91	104
39.92	80
39.93	104
39.94	99
39.95	123
39.96	112
39.97	139
39.98	139
39.99	159
40	157
40.01	137
40.02	155
40.03	143
40.04	150
40.05	134
40.06	104
40.07	88
40.08	92
40.09	87
40.1	88
40.11	78
40.12	60
40.13	72
40.14	67
40.15	39
40.16	48
40.17	50
40.18	29
40.19	39
40.2	35
40.21	34
40.22	33
40.23	32
40.24	32
40.25	23
40.26	30
40.27	26
40.28	35
40.29	22
40.3	21
40.31	22
40.32	27
40.33	25
40.34	16
40.35	18
40.36	19
40.37	20
40.38	23
40.39	20
40.4	24
40.41	23
40.42	18
40.43	22
40.44	20
40.45	11
40.46	12
40.47	13
40.48	26
40.49	20
40.5	17
40.51	16
40.52	13
40.53	11
40.54	20
40.55	27
40.56	20
40.57	11
40.58	17
40.59	21
40.6	18
40.61	18
40.62	20
40.63	16
40.64	17
40.65	16
40.66	20
40.67	21
40.68	21
40.69	13
40.7	21
40.71	15
40.72	17
40.73	19
40.74	18
40.75	18
40.76	14
40.77	15
40.78	20
40.79	21
40.8	18
40.81	16
40.82	10
40.83	17
40.84	14
40.85	18
40.86	15
40.87	16
40.88	15
40.89	13
40.9	16
40.91	23
40.92	13
40.93	15
40.94	18
40.95	19
40.96	16
40.97	20
40.98	13
40.99	19
41	19
41.01	11
41.02	15
41.03	11
41.04	12
41.05	17
41.06	16
41.07	15
41.08	20
41.09	19
41.1	14
41.11	27
41.12	24
41.13	20
41.14	22
41.15	18
41.16	21
41.17	18
41.18	24
41.19	11
41.2	22
41.21	17
41.22	17
41.23	17
41.24	19
41.25	23
41.26	27
41.27	24
41.28	17
41.29	15
41.3	11
41.31	22
41.32	26
41.33	17
41.34	13
41.35	24
41.36	37
41.37	22
41.38	19
41.39	24
41.4	33
41.41	25
41.42	28
41.43	33
41.44	27
41.45	28
41.46	27
41.47	26
41.48	37
41.49	27
41.5	35
41.51	40
41.52	35
41.53	29
41.54	32
41.55	36
41.56	24
41.57	31
41.58	26
41.59	36
41.6	48
41.61	68
41.62	192
41.63	641
41.64	2337
41.65	6943
41.66	18961
41.67	44814
41.68	56763
41.69	47686
41.7	16932
41.71	2403
41.72	319
41.73	110
41.74	87
41.75	88
41.76	96
41.77	105
41.78	85
41.79	45
41.8	38
41.81	36
41.82	30
41.83	21
41.84	27
41.85	30
41.86	21
41.87	22
41.88	15
41.89	17
41.9	29

; Data for range 81
_DRIVE = COUPLED
_STEPTIME = 19.2
_STEPSIZE = 0.01
_STEPMODE = C
_START = 39.2
_THETA = 19.6
_2THETA = 39.2
_KHI = -0.162797
_PHI = 0.000039
_X = -2.007
_Y = 8.924
_Z = -0.810996
_DETECTORSLIT = out
_AUX1 = 0
_AUX2 = -2.4
_TIMESTARTED = 4719.198
_KV = 40
_MA = 40
_RANGE_WL = 1.5406
_3DPLANE = 0
_V4_PSD2THETA = 9999
_V4_PSDCHANNEL1 = 0
_V4_PSDAPERTURE = 2.057142
_V4_PSDTYPE = 5
_V4_PSDFIXED = 0
_V4_TEMPCONTROL = 0
_V4_TEMPSTAGE = 0
_V4_TEMPSENSOR = 0
_V4_TEMPERATURE = 273.15
_V4_TEMPRATE = 0
_V4_TEMPDELAY = 0
_V4_TEMPRAMPFLAG = 0
_V4_COUNTERS_MASK = 1
_V4_DRIVES_MASK = 0
_V4_ENCODERS_MASK = 0
_2THETACOUNTS = 1
; 2THETA	Cnt2_D1
39.2	15
39.21	20
39.22	26
39.23	14
39.24	15
39.25	14
39.26	24
39.27	17
39.28	22
39.29	23
39.3	20
39.31	18
39.32	16
39.33	21
39.34	22
39.35	16
39.36	17
39.37	24
39.38	19
39.39	14
39.4	17
39.41	24
39.42	23
39.43	26
39.44	19
39.45	21
39.46	22
39.47	20
39.48	20
39.49	19
39.5	13
39.51	12
39.52	13
39.53	18
39.54	14
39.55	19
39.56	20
39.57	26
39.58	20
39.59	24
39.6	16
39.61	23
39.62	16
39.63	23
39.64	21
39.65	14
39.66	19
39.67	24
39.68	34
39.69	26
39.7	15
39.71	20
39.72	27
39.73	18
39.74	19
39.75	23
39.76	35
39.77	26
39.78	21
39.79	29
39.8	20
39.81	29
39.82	26
39.83	16
39.84	23
39.85	26
39.86	21
39.87	19
39.88	30
39.89	29
39.9	36
39.91	18
39.92	35
39.93	34
39.94	27
39.95	18
39.96	22
39.97	44
39.98	25
39.99	42
40	26
40.01	33
40.02	32
40.03	32
40.04	23
40.05	38
40.06	31
40.07	25
40.08	29
40.09	31
40.1	22
40.11	29
40.12	32
40.13	28
40.14	20
40.15	28
40.16	21
40.17	24
40.18	35
40.19	19
40.2	22
40.21	21
40.22	21
40.23	16
40.24	16
40.25	17
40.26	21
40.27	19
40.28	27
40.29	22
40.3	16
40.31	18
40.32	25
40.33	9.000000
40.34	21
40.35	17
40.36	20
40.37	17
40.38	19
40.39	19
40.4	16
40.41	20
40.42	17
40.43	26
40.44	20
40.45	25
40.46	28
40.47	25
40.48	24
40.49	12
40.5	21
40.51	25
40.52	23
40.53	19
40.54	12
40.55	17
40.56	14
40.57	24
40.58	25
40.59	21
40.6	11
40.61	19
40.62	21
40.63	16
40.64	19
40.65	21
40.66	20
40.67	17
40.68	14
40.69	19
40.7	23
40.71	22
40.72	19
40.73	24
40.74	22
40.75	15
40.76	17
40.77	15
40.78	22
40.79	17
40.8	21
40.81	21
40.82	24
40.83	18
40.84	25
40.85	18
40.86	17
40.87	13
40.88	15
40.89	18
40.9	26
40.91	17
40.92	26
40.93	22
40.94	26
40.95	19
40.96	15
40.97	14
40.98	17
40.99	32
41	18
41.01	25
41.02	16
41.03	18
41.04	22
41.05	12
41.06	15
41.07	28
41.08	22
41.09	22
41.1	23
41.11	21
41.12	20
41.13	22
41.14	19
41.15	20
41.16	17
41.17	23
41.18	21
41.19	13
41.2	27
41.21	19
41.22	23
41.23	23
41.24	20
41.25	14
41.26	25
41.27	25
41.28	17
41.29	17
41.3	22
41.31	35
41.32	16
41.33	17
41.34	25
41.35	16
41.36	22
41.37	27
41.38	31
41.39	35
41.4	37
41.41	38
41.42	37
41.43	39
41.44	36
41.45	35
41.46	41
41.47	45
41.48	42
41.49	47
41.5	47
41.51	54
41.52	57
41.53	47
41.54	44
41.55	33
41.56	39
41.57	38
41.58	45
41.59	46
41.6	44
41.61	70
41.62	88
41.63	205
41.64	827
41.65	5146
41.66	22508
41.67	49829
41.68	60406
41.69	47228
41.7	16781
41.71	2647
41.72	329
41.73	149
41.74	96
41.75	101
41.76	106
41.77	101
41.78	83
41.79	58
41.8	37
41.81	28
41.82	16
41.83	26
41.84	30
41.85	30
41.86	25
41.87	17
41.88	18
41.89	22
41.9	16